workerid,proliferate.condition,correct,cumrt,distractors,internal_node_id,item,order,response,rt,sentence,stimulus,time_elapsed,trial_index,trial_type,type,words,error
957,1,,,,0.0-0.0,,,0,2287,," <center><img width=""300px"" src=""assets/stanford.png"" /></center><div id=""legal""></br>By answering the following questions, you are participating in a study being performed by cognitive scientists in the Stanford Department of Psychology. If you have questions about this research, please contact us at  <a href=""mailto://languagecoglab@gmail.com.""> languagecoglab@gmail.com</a>.You must be at least 18 years old to participate. Your participation in this research is voluntary. You may decline to answer any or all of the following questions. You may decline further participation, at any time, without adverse consequences. Your anonymity is assured; the researchers who have requested your participation will not receive any personal information about you. </div></br>",2292,0,html-button-response,,,
957,1,,,,0.0-1.0,,,0,12867,,"<h3>Please read these instructions carefully!</h3> </br><p>For this experiment, please place your <b>left index finger on the 'e' key</b> and your <b>right index finger on the 'i' key</b>.</p><p> You will read sentences word by word. However, you will have to guess which word comes next. On each screen you will see two options: one will be the next word in the sentence, and one will not. </p><p><b>Select the word that continues the sentence by pressing 'e' (left-hand) for the word on the left or pressing 'i' (right-hand) for the word on the right.</b></p><p>Select the best word as quickly as you can, but without making too many errors. </p><div><p>Click ""Continue"" to try this on a practice sentence.</p></div>",15161,1,html-button-response,,,
957,1,"[1, 1, 0, 1, 1, 0, 0, 1, 0, 1, 1, 1, 1, 1]","[9581, 3137, 21249, 7379, 2580, 6088, 2412, 7160, 4555, 2269, 1954, 2199, 1247, 1767]","['x-x-x', 'whom', 'knew', 'appeared', 'emotions', 'know', 'dad', 'lake', 'edition', 'jack', 'fans', 'fund', 'grow', 'died.']",0.0-2.0,,"[1, 1, 0, 1, 0, 0, 1, 0, 1, 0, 0, 0, 1, 1]",,"[9581, 3137, 3807, 7379, 2580, 5014, 1887, 7160, 3263, 2269, 1954, 2199, 1247, 1767]",,,88822,2,maze,,"['This', 'is', 'a', 'practice', 'sentence', 'that', 'you', 'are', 'reading', 'one', 'word', 'at', 'a', 'time.']",
957,1,,,,0.0-3.0,,,0,2378,,"<h3>Please read these instructions carefully!</h3> </br><p>Great job! Now you are ready for the main experiment.</p><p> You will now read 16 short stories in the same word-by-word way.</p><div><p>Click ""Continue"" to start the experiment.</p>",91201,3,html-button-response,,,
957,1,"[1, 0, 0, 1, 1, 0, 0, 0, 1, 1, 1, 1, 0, 1, 1, 1, 0, 1, 1, 1]","[5353, 3777, 6586, 3344, 1439, 2154, 2301, 3089, 1894, 1019, 1620, 890, 1695, 1401, 1190, 2031, 1928, 3733, 1273, 3671]","['x-x-x', 'outcomes', 'pray', 'awesome', 'rose', 'rise', 'require', 'theirs', 'governor', 'need', 'irony.', 'x-x-x', 'thing', 'wall', 'boy', 'weird', 'idea', 'exploits', 'boys', 'website.']",0.0-4.0-0.0,26,"[0, 0, 1, 1, 1, 0, 0, 1, 1, 1, 1, 1, 0, 0, 1, 0, 0, 1, 1, 0]",,"[5353, 2843, 5529, 3344, 1439, 1489, 1447, 2157, 1894, 1019, 1620, 890, 1065, 1401, 1190, 2031, 1297, 3733, 1273, 3671]",A cleaning lady started on her morning rounds carrying a brush. She would have to clean a corridor that morning.,,141680,4,maze,setup,"['A', 'cleaning', 'lady', 'started', 'on', 'her', 'morning', 'rounds', 'carrying', 'a', 'brush.', 'She', 'would', 'have', 'to', 'clean', 'a', 'corridor', 'that', 'morning.']",
957,1,"[1, 1, 1, 1, 1, 0, 0, 1, 1, 0, 1, 0, 0, 1, 1, 0, 1, 1, 1, 0, 1, 1, 1, 1, 0]","[645, 1208, 1735, 1051, 605, 1752, 3913, 823, 932, 2044, 863, 2883, 1851, 643, 634, 1860, 4146, 1291, 1033, 2680, 1223, 1109, 915, 1017, 2296]","['x-x-x', 'able', 'somebody', 'queen', 'skin', 'us', 'stitches', 'lives', 'cat', 'kiss', 'case', 'galaxy', 'basis', 'try', 'note', 'win', 'educate', 'trump', 'boy', 'hero', 'true', 'universe', 'son', 'won', 'loves.']",0.0-4.0-0.1,26,"[1, 1, 0, 1, 0, 0, 0, 1, 0, 0, 1, 0, 1, 1, 0, 0, 0, 1, 0, 0, 0, 0, 0, 1, 0]",,"[645, 1208, 1735, 1051, 605, 1159, 3139, 823, 932, 1469, 863, 2062, 1052, 643, 634, 968, 4146, 1291, 1033, 1788, 1223, 1109, 915, 1017, 1476]",In the building there was a corridor which had lots of plants along it and a lounge which had lots of pictures on the walls.,,180902,5,maze,1-context,"['In', 'the', 'building', 'there', 'was', 'a', 'corridor', 'which', 'had', 'lots', 'of', 'plants', 'along', 'it', 'and', 'a', 'lounge', 'which', 'had', 'lots', 'of', 'pictures', 'on', 'the', 'walls.']",
957,1,"[1, 0, 1, 1, 1, 0, 1, 1, 1, 1, 0, 1, 1, 0]","[1664, 3986, 1969, 1964, 692, 2129, 1335, 729, 788, 942, 2626, 875, 1059, 1887]","['x-x-x', 'moreover', 'pray', 'trustee', 'call', 'prompted', 'join', 'came', 'galaxy', 'camp', 'plan', 'euro', 'age', 'proposing.']",0.0-4.0-0.2,26,"[0, 1, 0, 1, 0, 1, 1, 0, 1, 1, 1, 0, 1, 1]",,"[1664, 3126, 1969, 1964, 692, 1323, 1335, 729, 788, 942, 1947, 875, 1059, 1061]",The cleaning lady cleaned the corridor with the plants and then lit a cigarette.,,203615,6,maze,NP,"['The', 'cleaning', 'lady', 'cleaned', 'the', 'corridor', 'with', 'the', 'plants', 'and', 'then', 'lit', 'a', 'cigarette.']",
957,1,,,,0.0-5.0,,,,,,,204625,7,html-button-response,,,
957,1,"[1, 1, 1, 1, 1, 1, 0, 0, 0, 0, 0, 0, 1, 0, 0, 1, 1, 1, 0]","[5445, 1379, 842, 1145, 933, 552, 2220, 1638, 1504, 1276, 5281, 2804, 769, 2216, 1763, 960, 1069, 703, 1608]","['x-x-x', 'aftermath', 'luck', 'dollars', 'al', 'hurt', 'Happens', 'Forget', 'require', 'lose', 'dermatitis', 'ideas.', 'x-x-x', 'odds', 'idea', 'hate', 'miles', 'bet', 'suck.']",0.0-6.0-0.0,6,"[0, 1, 1, 1, 1, 1, 1, 1, 0, 0, 1, 1, 1, 1, 0, 0, 0, 0, 1]",,"[5445, 1379, 842, 1145, 933, 552, 1166, 1133, 992, 746, 4396, 1980, 769, 1438, 1140, 960, 1069, 703, 999]",A historian was working in the British Museum holding a magnifying glass. He’d sat down to study a map.,,238810,8,maze,setup,"['A', 'historian', 'was', 'working', 'in', 'the', 'British', 'Museum', 'holding', 'a', 'magnifying', 'glass.', 'He’d', 'sat', 'down', 'to', 'study', 'a', 'map.']",
957,1,"[1, 1, 0, 1, 1, 1, 0, 1, 1, 0, 0, 1, 1, 1, 0, 1, 1, 1, 0, 1]","[696, 2074, 2244, 819, 868, 487, 2012, 1088, 727, 2222, 1751, 1436, 713, 654, 2349, 3801, 1617, 744, 1696, 1360]","['x-x-x', 'dad', 'tons', 'queen', 'soul', 'knew', 'whom', 'goals', 'mom', 'vote', 'cosmetics', 'pigs', 'kids', 'pro', 'investing', 'trump', 'salary', 'girl', 'happens', 'employees.']",0.0-6.0-0.1,6,"[0, 1, 0, 0, 1, 0, 0, 1, 1, 1, 1, 0, 1, 0, 0, 0, 1, 0, 0, 1]",,"[696, 2074, 1413, 819, 868, 487, 1384, 1088, 727, 1439, 1118, 1436, 713, 654, 1511, 3801, 1617, 744, 926, 1360]",On his desk there was a map which had an appalling tear and a manuscript which seemed in perfect condition.,,268210,9,maze,1-context,"['On', 'his', 'desk', 'there', 'was', 'a', 'map', 'which', 'had', 'an', 'appalling', 'tear', 'and', 'a', 'manuscript', 'which', 'seemed', 'in', 'perfect', 'condition.']",
957,1,"[1, 0, 1, 1, 1, 1, 1, 1, 1, 0, 1, 1, 1, 1, 1, 1]","[687, 3533, 748, 630, 1112, 531, 1279, 2011, 1002, 7167, 1193, 1583, 1764, 2006, 2248, 1735]","['x-x-x', 'adulthood', 'kids', 'oh', 'china', 'door', 'bye', 'wait', 'eat', 'reimbursed', 'whom', 'mom', 'card', 'rise', 'types', 'bill.']",0.0-6.0-0.2,6,"[0, 0, 0, 0, 0, 0, 0, 0, 1, 1, 0, 0, 1, 0, 1, 1]",,"[687, 2708, 748, 630, 1112, 531, 1279, 2011, 1002, 6402, 1193, 1583, 1764, 2006, 2248, 1735]",The historian had to study the map with the appalling tear so as to value it.,,297474,10,maze,NP,"['The', 'historian', 'had', 'to', 'study', 'the', 'map', 'with', 'the', 'appalling', 'tear', 'so', 'as', 'to', 'value', 'it.']",
957,1,,,,0.0-7.0,,,,,,,298476,11,html-button-response,,,
957,1,"[1, 1, 0, 1, 1, 1, 1, 1, 1, 1, 1, 1, 0, 1, 1, 1, 1, 1, 1, 1, 1]","[4321, 2232, 2748, 1643, 1108, 1308, 1421, 1232, 701, 1267, 574, 1407, 1801, 2128, 1450, 746, 1103, 919, 1071, 1038, 2454]","['x-x-x', 'defections', 'fear', 'percent', 'buy', 'guy', 'yards', 'teams', 'hurt', 'deny', 'ways', 'inspires.', 'x-x-x', 'lot', 'card', 'lady', 'born', 'tomorrow', 'ask', 'died', 'relates.']",0.0-8.0-0.0,14,"[0, 1, 1, 0, 0, 1, 0, 1, 0, 1, 0, 0, 0, 0, 0, 0, 1, 0, 0, 1, 0]",,"[4321, 2232, 1519, 1643, 1108, 1308, 1421, 1232, 701, 1267, 574, 1407, 1054, 2128, 1450, 746, 1103, 919, 1071, 1038, 2454]",A dressmaker was working on a dress using a pair of scissors. She had to cut some material for the pockets.,,331181,12,maze,setup,"['A', 'dressmaker', 'was', 'working', 'on', 'a', 'dress', 'using', 'a', 'pair', 'of', 'scissors.', 'She', 'had', 'to', 'cut', 'some', 'material', 'for', 'the', 'pockets.']",
957,1,"[1, 1, 1, 1, 1, 1, 1, 1, 1, 1, 1, 1, 1, 1, 1, 1, 1, 1, 1, 1]","[1260, 1164, 534, 1335, 640, 1520, 1353, 1064, 907, 1372, 947, 1623, 1199, 760, 1270, 876, 2314, 2664, 782, 1467]","['x-x-x', 'fact', 'lake', 'shall', 'cold', 'universe', 'users', 'cash', 'spot', 'embassy', 'boys', 'want', 'jobs', 'rule', 'taxes', 'kids', 'outcome', 'rates', 'buy', 'quest.']",0.0-8.0-0.1,14,"[0, 0, 0, 0, 1, 1, 1, 0, 0, 0, 1, 1, 1, 0, 1, 0, 0, 1, 0, 0]",,"[1260, 1164, 534, 1335, 640, 1520, 1353, 1064, 907, 1372, 947, 1623, 1199, 760, 1270, 876, 2314, 2664, 782, 1467]",She had a piece of material which had a pattern on it and a piece of leather which was plain.,,356238,13,maze,1-context,"['She', 'had', 'a', 'piece', 'of', 'material', 'which', 'had', 'a', 'pattern', 'on', 'it', 'and', 'a', 'piece', 'of', 'leather', 'which', 'was', 'plain.']",
957,1,"[1, 1, 1, 1, 1, 1, 1, 1, 1, 1, 1, 1, 1, 0]","[1251, 1696, 1677, 761, 1383, 760, 1663, 953, 844, 1142, 800, 933, 1180, 2312]","['x-x-x', 'locomotion', 'cool', 'ask', 'enjoying', 'sure', 'bet', 'educate', 'town', 'born', 'boys', 'date', 'plus', 'robin.']",0.0-8.0-0.2,14,"[0, 0, 1, 0, 0, 0, 0, 0, 1, 1, 0, 0, 0, 0]",,"[1251, 1696, 1677, 761, 1383, 760, 1663, 953, 844, 1142, 800, 933, 1180, 1430]",The dressmaker cut the material with the scissors and then went to have lunch.,,373609,14,maze,VP,"['The', 'dressmaker', 'cut', 'the', 'material', 'with', 'the', 'scissors', 'and', 'then', 'went', 'to', 'have', 'lunch.']",
957,1,,,,0.0-9.0,,,,,,,374614,15,html-button-response,,,
957,1,"[1, 1, 1, 1, 1, 1, 1, 1, 1, 1, 1, 1, 1, 1, 1, 1, 1]","[2821, 1610, 876, 1170, 1329, 682, 1254, 1553, 760, 1215, 1281, 919, 1241, 754, 958, 767, 1106]","['x-x-x', 'rumors', 'nice', 'hall', 'courses', 'mark', 'cops', 'worst', 'meet', 'gigs.', 'x-x-x', 'else', 'memories', 'send', 'info', 'gain', 'resign.']",0.0-10.0-0.0,11,"[1, 0, 1, 1, 0, 1, 1, 0, 0, 0, 0, 1, 0, 0, 0, 1, 1]",,"[2821, 1610, 876, 1170, 1329, 682, 1254, 1553, 760, 1215, 1281, 919, 1241, 754, 958, 767, 1106]",A monkey had been trained to eat using a fork. It was supposed to eat a banana.,,394915,16,maze,setup,"['A', 'monkey', 'had', 'been', 'trained', 'to', 'eat', 'using', 'a', 'fork.', 'It', 'was', 'supposed', 'to', 'eat', 'a', 'banana.']",
957,1,"[1, 1, 1, 1, 1, 1, 1, 1, 1, 1, 1, 1, 1, 1, 1, 1, 1]","[1207, 564, 1536, 675, 1208, 886, 756, 632, 1471, 1402, 2331, 1761, 747, 1084, 1488, 1054, 2159]","['x-x-x', 'mid', 'worry', 'kid', 'misses', 'goals', 'mind', 'step', 'faking', 'else', 'am', 'vote', 'deal', 'deals', 'risk', 'jobs', 'opinion.']",0.0-10.0-0.1,11,"[1, 0, 1, 1, 1, 0, 1, 0, 1, 0, 0, 0, 1, 1, 1, 1, 0]",,"[1207, 564, 1536, 675, 1208, 886, 756, 632, 1471, 1402, 2331, 1761, 747, 1084, 1488, 1054, 2159]",It was given a banana which had a bruise on it and a banana that was perfect.,,415880,17,maze,2-context,"['It', 'was', 'given', 'a', 'banana', 'which', 'had', 'a', 'bruise', 'on', 'it', 'and', 'a', 'banana', 'that', 'was', 'perfect.']",
957,1,"[1, 1, 1, 1, 1, 1, 1, 1, 1, 1, 1, 1]","[1126, 1251, 1019, 562, 823, 1451, 813, 1307, 1382, 1583, 2726, 1758]","['x-x-x', 'deploy', 'ease', 'gain', 'trends', 'risk', 'hall', 'squads', 'jobs', 'rule', 'governance', 'attorney.']",0.0-10.0-0.2,11,"[0, 1, 0, 0, 0, 0, 0, 0, 1, 1, 1, 0]",,"[1126, 1251, 1019, 562, 823, 1451, 813, 1307, 1382, 1583, 2726, 1758]",The monkey ate the banana with the fork much to everyone’s surprise.,,431687,18,maze,VP,"['The', 'monkey', 'ate', 'the', 'banana', 'with', 'the', 'fork', 'much', 'to', 'everyone’s', 'surprise.']",
957,1,,,,0.0-11.0,,,,,,,432704,19,html-button-response,,,
957,1,"[1, 1, 1, 1, 1, 1, 1, 1, 1, 1, 1, 1, 1, 1, 1, 1, 1, 1, 1]","[2322, 2535, 797, 1655, 954, 814, 1134, 1185, 648, 1466, 700, 1644, 1006, 846, 1167, 904, 1110, 708, 1201]","['x-x-x', 'reactions', 'wind', 'billion', 'ice', 'went', 'causes', 'require', 'came', 'led', 'them', 'grandchild.', 'x-x-x', 'body', 'coast', 'heat', 'brain', 'foot', 'aware.']",0.0-12.0-0.0,31,"[0, 1, 0, 0, 0, 0, 1, 0, 0, 1, 0, 0, 1, 0, 1, 1, 1, 1, 0]",,"[2322, 2535, 797, 1655, 954, 814, 1134, 1185, 648, 1466, 700, 1644, 1006, 846, 1167, 904, 1110, 708, 1201]",A detective was sitting at a window holding a set of binoculars. He’d been asked to watch a woman.,,455505,20,maze,setup,"['A', 'detective', 'was', 'sitting', 'at', 'a', 'window', 'holding', 'a', 'set', 'of', 'binoculars.', 'He’d', 'been', 'asked', 'to', 'watch', 'a', 'woman.']",
957,1,"[1, 1, 1, 1, 1, 1, 1, 1, 1, 1, 0, 0, 1, 1, 1, 1, 1, 1, 1, 1]","[867, 1805, 1006, 990, 1100, 1161, 1006, 1065, 2459, 826, 1988, 4277, 891, 1553, 1098, 823, 1102, 1388, 623, 1860]","['x-x-x', 'kept', 'gave', 'slow', 'true', 'million', 'park', 'march', 'bus', 'cell', 'apart', 'factors', 'site', 'insiders', 'wind', 'cost', 'costs', 'airport', 'year', 'honours.']",0.0-12.0-0.1,31,"[0, 0, 1, 1, 1, 1, 1, 0, 1, 1, 0, 1, 1, 1, 0, 0, 0, 1, 0, 0]",,"[867, 1805, 1006, 990, 1100, 1161, 1006, 1065, 2459, 826, 1162, 3495, 891, 1553, 1098, 823, 1102, 1388, 623, 1860]",In the room he was looking into there was a woman holding a revolver and a man holding a grenade.,,483418,21,maze,1-context,"['In', 'the', 'room', 'he', 'was', 'looking', 'into', 'there', 'was', 'a', 'woman', 'holding', 'a', 'revolver', 'and', 'a', 'man', 'holding', 'a', 'grenade.']",
957,1,"[1, 1, 1, 1, 1, 1, 1, 1, 1, 1, 0, 1, 1, 1]","[1010, 1721, 1439, 886, 689, 955, 705, 1287, 791, 1377, 2567, 1112, 3126, 2105]","['x-x-x', 'preparing', 'poverty', 'heat', 'meant', 'wood', 'year', 'reelection', 'poor', 'firm', 'size', 'cost', 'wants', 'land.']",0.0-12.0-0.2,31,"[0, 0, 1, 1, 1, 1, 1, 1, 0, 1, 1, 0, 1, 0]",,"[1010, 1721, 1439, 886, 689, 955, 705, 1287, 791, 1377, 2060, 1112, 3126, 2105]",The detective watched the woman with the revolver and then made a phone call.,,503198,22,maze,NP,"['The', 'detective', 'watched', 'the', 'woman', 'with', 'the', 'revolver', 'and', 'then', 'made', 'a', 'phone', 'call.']",
957,1,,,,0.0-13.0,,,,,,,504217,23,html-button-response,,,
957,1,"[1, 1, 1, 1, 1, 1, 1, 1, 1, 1, 1, 1, 1, 1, 1, 1, 1, 1, 1]","[4443, 820, 925, 2045, 564, 935, 856, 883, 2138, 876, 659, 1432, 1395, 929, 1954, 842, 1059, 816, 660]","['x-x-x', 'rest', 'ice', 'regulators', 'pull', 'runs', 'slow', 'code', 'race', 'case', 'road', 'along', 'sells.', 'x-x-x', 'holiday', 'bus', 'chips', 'walk', 'hire.']",0.0-14.0-0.0,32,"[0, 1, 1, 0, 1, 0, 0, 0, 0, 1, 1, 1, 0, 1, 0, 1, 1, 1, 0]",,"[4443, 820, 925, 2045, 564, 935, 856, 883, 2138, 876, 659, 1432, 1395, 929, 1954, 842, 1059, 816, 660]",A man was decorating a room and had with him a large brush. He’d decided to paint a door.,,528453,24,maze,setup,"['A', 'man', 'was', 'decorating', 'a', 'room', 'and', 'had', 'with', 'him', 'a', 'large', 'brush.', 'He’d', 'decided', 'to', 'paint', 'a', 'door.']",
957,1,"[1, 1, 1, 1, 1, 1, 1, 1, 1, 1, 1, 1, 1, 1, 1, 1, 1, 1, 1, 1]","[599, 820, 1230, 2090, 907, 1074, 807, 1082, 1545, 832, 1121, 975, 1188, 920, 820, 818, 1406, 1375, 1318, 733]","['x-x-x', 'able', 'gave', 'proud', 'son', 'took', 'asks', 'terms', 'job', 'dog', 'knows', 'kings', 'days', 'talk', 'drug', 'army', 'agency', 'peace', 'election', 'aware.']",0.0-14.0-0.1,32,"[1, 1, 1, 0, 0, 0, 1, 1, 0, 0, 0, 1, 0, 1, 0, 0, 0, 1, 1, 0]",,"[599, 820, 1230, 2090, 907, 1074, 807, 1082, 1545, 832, 1121, 975, 1188, 920, 820, 818, 1406, 1375, 1318, 733]",In the room there was a door which had a large crack in it and a window which wouldn't close.,,550121,25,maze,1-context,"['In', 'the', 'room', 'there', 'was', 'a', 'door', 'which', 'had', 'a', 'large', 'crack', 'in', 'it', 'and', 'a', 'window', 'which', ""wouldn't"", 'close.']",
957,1,"[1, 1, 1, 1, 1, 1, 1, 1, 1, 1, 1, 1, 1, 1, 1, 1]","[1065, 1147, 903, 600, 850, 724, 875, 1458, 831, 1239, 929, 862, 1135, 821, 1259, 1081]","['x-x-x', 'seen', 'weekend', 'tree', 'firms', 'bit', 'suck', 'fair', 'may', 'alone', 'forth', 'walk', 'code', 'won', 'ranked', 'union.']",0.0-14.0-0.2,32,"[0, 1, 1, 0, 0, 1, 1, 1, 1, 0, 0, 0, 0, 1, 0, 1]",,"[1065, 1147, 903, 600, 850, 724, 875, 1458, 831, 1239, 929, 862, 1135, 821, 1259, 1081]",The man decided to paint the door with the large brush and do the window later.,,565905,26,maze,VP,"['The', 'man', 'decided', 'to', 'paint', 'the', 'door', 'with', 'the', 'large', 'brush', 'and', 'do', 'the', 'window', 'later.']",
957,1,,,,0.0-15.0,,,,,,,566914,27,html-button-response,,,
957,1,"[1, 1, 0, 1, 1, 1, 1, 1, 1, 1, 1, 1, 1, 1, 1, 1, 1, 1]","[3369, 2448, 1732, 1101, 1010, 782, 2214, 585, 1157, 907, 915, 1515, 676, 2287, 687, 1137, 1351, 1060]","['x-x-x', 'mergers', 'aspects', 'nice', 'glad', 'adds', 'medicinal', 'know', 'kings.', 'x-x-x', 'lot', 'memories', 'lose', 'except', 'guy', 'denote', 'ones', 'celebrate.']",0.0-16.0-0.0,3,"[1, 1, 1, 1, 1, 0, 1, 0, 0, 1, 0, 0, 1, 1, 0, 1, 1, 0]",,"[3369, 2448, 927, 1101, 1010, 782, 2214, 585, 1157, 907, 915, 1515, 676, 2287, 687, 1137, 1351, 1060]",A convict escaped from his cell clutching a knife. He was prepared to attack a warden if necessary.,,591857,28,maze,setup,"['A', 'convict', 'escaped', 'from', 'his', 'cell', 'clutching', 'a', 'knife.', 'He', 'was', 'prepared', 'to', 'attack', 'a', 'warden', 'if', 'necessary.']",
957,1,"[1, 1, 1, 1, 1, 1, 1, 1, 1, 1, 1, 1, 1, 1, 1, 1, 1, 1]","[713, 1524, 1301, 1560, 1269, 1121, 1506, 787, 1290, 608, 1180, 720, 982, 1617, 1622, 607, 1596, 2604]","['x-x-x', 'profile', 'dad', 'pre', 'am', 'waived', 'sources', 'oh', 'hates', 'us', 'owns', 'year', 'mean', 'optimism', 'eastern', 'vs', 'laws', 'canonized.']",0.0-16.0-0.1,3,"[1, 1, 0, 0, 0, 1, 0, 1, 1, 1, 0, 1, 0, 0, 0, 1, 0, 1]",,"[713, 1524, 1301, 1560, 1269, 1121, 1506, 787, 1290, 608, 1180, 720, 982, 1617, 1622, 607, 1596, 2604]",Once outside he saw a warden holding a bunch of keys and a warden holding a long truncheon.,,614468,29,maze,2-context,"['Once', 'outside', 'he', 'saw', 'a', 'warden', 'holding', 'a', 'bunch', 'of', 'keys', 'and', 'a', 'warden', 'holding', 'a', 'long', 'truncheon.']",
957,1,"[1, 1, 1, 1, 1, 1, 1, 1, 1, 1, 1, 1, 1]","[836, 926, 1543, 1088, 696, 748, 722, 737, 626, 1098, 942, 1063, 1071]","['x-x-x', 'waivers', 'vacation', 'amicus', 'fund', 'done', 'loaned', 'miss', 'ago', 'meets', 'wonder', 'website', 'app.']",0.0-16.0-0.2,3,"[0, 0, 1, 0, 1, 0, 1, 0, 1, 1, 0, 1, 0]",,"[836, 926, 1543, 1088, 696, 748, 722, 737, 626, 1098, 942, 1063, 1071]",The convict suddenly lunged at the warden with the keys before running off.,,626570,30,maze,NP,"['The', 'convict', 'suddenly', 'lunged', 'at', 'the', 'warden', 'with', 'the', 'keys', 'before', 'running', 'off.']",
957,1,,,,0.0-17.0,,,,,,,627572,31,html-button-response,,,
957,1,"[1, 1, 1, 1, 1, 1, 1, 1, 1, 0, 1, 1, 1, 1, 1, 1, 1, 1, 1]","[2387, 1991, 1056, 1388, 789, 732, 758, 1293, 535, 4585, 1604, 1716, 1244, 1229, 2239, 897, 790, 511, 730]","['x-x-x', 'habitats', 'finals', 'god', 'cent', 'soul', 'sir', 'churches', 'yeah', 'expand', 'rarity.', 'x-x-x', 'amazing', 'mess', 'sale', 'app', 'senate', 'pre', 'dams.']",0.0-18.0-0.0,2,"[1, 0, 1, 0, 0, 0, 1, 0, 1, 0, 1, 1, 1, 0, 1, 1, 0, 1, 0]",,"[2387, 1991, 1056, 1388, 789, 732, 758, 1293, 535, 3882, 1604, 1716, 1244, 1229, 2239, 897, 790, 511, 730]",A mechanic walked up to a car carrying a monkey wrench. He thought he’d have to change a tyre.,,654063,32,maze,setup,"['A', 'mechanic', 'walked', 'up', 'to', 'a', 'car', 'carrying', 'a', 'monkey', 'wrench.', 'He', 'thought', 'he’d', 'have', 'to', 'change', 'a', 'tyre.']",
957,1,"[1, 1, 1, 1, 1, 1, 1, 1, 1, 1, 1, 1, 1, 1, 1, 1, 1, 1, 1, 1, 1, 1, 1, 1, 1, 1]","[723, 1856, 1037, 620, 701, 1203, 939, 1165, 551, 551, 861, 871, 931, 679, 1378, 1344, 911, 1006, 706, 1508, 851, 992, 951, 868, 842, 854]","['x-x-x', 'motivated', 'hour', 'whom', 'al', 'queen', 'jack', 'agree', 'glad', 'app', 'airs', 'games', 'pre', 'sir', 'trolls', 'hates', 'hear', 'lord', 'rite', 'happy', 'page', 'cent', 'wrote', 'dawn', 'god', 'knew.']",0.0-18.0-0.1,2,"[1, 0, 0, 0, 1, 1, 1, 0, 1, 0, 1, 0, 1, 0, 0, 1, 0, 1, 0, 0, 0, 0, 1, 1, 1, 1]",,"[723, 1856, 1037, 620, 701, 1203, 939, 1165, 551, 551, 861, 871, 931, 679, 1378, 1344, 911, 1006, 706, 1508, 851, 992, 951, 868, 842, 854]",On examining the car he found that there was a tyre which had a faulty valve and a tyre which had a small hole in it.,,678967,33,maze,2-context,"['On', 'examining', 'the', 'car', 'he', 'found', 'that', 'there', 'was', 'a', 'tyre', 'which', 'had', 'a', 'faulty', 'valve', 'and', 'a', 'tyre', 'which', 'had', 'a', 'small', 'hole', 'in', 'it.']",
957,1,"[1, 1, 1, 1, 1, 1, 1, 1, 1, 1, 1, 1, 1, 1, 1]","[1360, 1305, 968, 1017, 732, 1017, 763, 1144, 849, 1088, 2450, 1190, 848, 937, 711]","['x-x-x', 'marketed', 'seconds', 'miss', 'oaks', 'sick', 'died', 'preach', 'uphold', 'eat', 'fund', 'hate', 'hall', 'hear', 'born.']",0.0-18.0-0.2,2,"[1, 1, 0, 1, 0, 0, 1, 0, 1, 1, 1, 0, 0, 1, 0]",,"[1360, 1305, 968, 1017, 732, 1017, 763, 1144, 849, 1088, 2450, 1190, 848, 937, 711]",The mechanic changed the tyre with the monkey wrench but it took a long time.,,695348,34,maze,VP,"['The', 'mechanic', 'changed', 'the', 'tyre', 'with', 'the', 'monkey', 'wrench', 'but', 'it', 'took', 'a', 'long', 'time.']",
957,1,,,,0.0-19.0,,,,,,,696353,35,html-button-response,,,
957,1,"[1, 1, 1, 1, 1, 1, 1, 1, 1, 1, 1, 1, 1, 1, 1, 1, 1]","[1564, 1920, 1320, 666, 1656, 1486, 1029, 1851, 631, 2155, 811, 1127, 1043, 722, 876, 520, 797]","['x-x-x', 'photos', 'hottest', 'luck', 'defenses', 'know', 'aliens', 'omissions', 'wish', 'elect.', 'x-x-x', 'body', 'coast', 'link', 'cubs', 'ring', 'courts.']",0.0-20.0-0.0,8,"[0, 1, 1, 0, 0, 0, 0, 1, 0, 0, 1, 1, 1, 1, 0, 1, 1]",,"[1564, 1920, 1320, 666, 1656, 1486, 1029, 1851, 631, 2155, 811, 1127, 1043, 722, 876, 520, 797]",A window cleaner was climbing his ladder clutching a cloth. He’d been asked to wipe a window.,,716536,36,maze,setup,"['A', 'window', 'cleaner', 'was', 'climbing', 'his', 'ladder', 'clutching', 'a', 'cloth.', 'He’d', 'been', 'asked', 'to', 'wipe', 'a', 'window.']",
957,1,"[1, 1, 1, 1, 1, 1, 1, 1, 1, 1, 1, 1, 1, 1, 1, 1, 1, 1, 1, 1, 1, 1, 1, 1, 1, 1]","[813, 2643, 1079, 930, 803, 1752, 1223, 1058, 599, 630, 761, 1236, 675, 767, 951, 839, 942, 509, 604, 962, 851, 1176, 1022, 926, 2214, 1601]","['x-x-x', 'fact', 'god', 'termed', 'mind', 'mid', 'week', 'worry', 'page', 'says', 'awards', 'apply', 'mom', 'know', 'else', 'van', 'euro', 'gift', 'sold', 'male', 'pro', 'accords', 'rates', 'cash', 'statistics', 'agree.']",0.0-20.0-0.1,8,"[1, 1, 1, 0, 1, 0, 0, 0, 0, 1, 0, 0, 0, 1, 0, 1, 0, 1, 1, 0, 1, 1, 1, 0, 0, 0]",,"[813, 2643, 1079, 930, 803, 1752, 1223, 1058, 599, 630, 761, 1236, 675, 767, 951, 839, 942, 509, 604, 962, 851, 1176, 1022, 926, 2214, 1601]",Once up the ladder he saw that there was a window which had a lot of dirt on it and a window which was relatively clean.,,744106,37,maze,2-context,"['Once', 'up', 'the', 'ladder', 'he', 'saw', 'that', 'there', 'was', 'a', 'window', 'which', 'had', 'a', 'lot', 'of', 'dirt', 'on', 'it', 'and', 'a', 'window', 'which', 'was', 'relatively', 'clean.']",
957,1,"[1, 1, 1, 1, 1, 1, 1, 1, 1, 1, 1, 1, 1]","[812, 1084, 766, 1212, 616, 934, 840, 832, 855, 924, 2045, 689, 1584]","['x-x-x', 'afford', 'insulin', 'pence', 'gift', 'belong', 'hope', 'wish', 'seeks', 'worry', 'deserve', 'kill', 'percent.']",0.0-20.0-0.2,8,"[1, 1, 0, 1, 1, 1, 1, 0, 1, 1, 1, 0, 1]",,"[812, 1084, 766, 1212, 616, 934, 840, 832, 855, 924, 2045, 689, 1584]",The window cleaner wiped the window with the cloth while singing to himself.,,757307,38,maze,VP,"['The', 'window', 'cleaner', 'wiped', 'the', 'window', 'with', 'the', 'cloth', 'while', 'singing', 'to', 'himself.']",
957,1,,,,0.0-21.0,,,,,,,758313,39,html-button-response,,,
957,1,"[1, 1, 1, 1, 1, 1, 1, 1, 1, 1, 1, 1, 1, 1, 1, 1, 1, 0, 1, 1, 1, 1, 1]","[1606, 1581, 563, 1497, 600, 1531, 656, 704, 622, 1034, 741, 1416, 2120, 1130, 899, 718, 827, 1748, 1680, 489, 1144, 955, 884]","['x-x-x', 'batters', 'join', 'videos', 'goal', 'types', 'rose', 'died', 'terms', 'male', 'firm', 'size', 'writes', 'suck', 'wind', 'skin', 'thus.', 'x-x-x', 'happen', 'foot', 'upon', 'lie', 'tend.']",0.0-22.0-0.0,25,"[0, 0, 0, 1, 0, 0, 1, 1, 0, 0, 1, 1, 0, 1, 1, 0, 0, 0, 0, 1, 1, 1, 1]",,"[1606, 1581, 563, 1497, 600, 1531, 656, 704, 622, 1034, 741, 1416, 2120, 1130, 899, 718, 827, 932, 1680, 489, 1144, 955, 884]",A burglar was trying to break into a house and had a credit card in his hand. He wanted to open a door.,,783468,40,maze,setup,"['A', 'burglar', 'was', 'trying', 'to', 'break', 'into', 'a', 'house', 'and', 'had', 'a', 'credit', 'card', 'in', 'his', 'hand.', 'He', 'wanted', 'to', 'open', 'a', 'door.']",
957,1,"[1, 1, 1, 1, 1, 1, 1, 1, 1, 1, 1, 1, 1, 1, 1, 1, 1]","[663, 1292, 968, 920, 1088, 776, 622, 1279, 1868, 824, 597, 1106, 1514, 1061, 535, 1187, 1142]","['x-x-x', 'queen', 'draw', 'onto', 'stars', 'fat', 'dog', 'assert', 'tons', 'poor', 'boys', 'movies', 'weird', 'gay', 'race', 'propose', 'gifts.']",0.0-22.0-0.1,25,"[1, 0, 0, 1, 0, 0, 1, 1, 1, 1, 0, 0, 1, 0, 1, 1, 0]",,"[663, 1292, 968, 920, 1088, 776, 622, 1279, 1868, 824, 597, 1106, 1514, 1061, 535, 1187, 1142]",He found a door which had a faulty lock and a window which had a cracked frame.,,800914,41,maze,1-context,"['He', 'found', 'a', 'door', 'which', 'had', 'a', 'faulty', 'lock', 'and', 'a', 'window', 'which', 'had', 'a', 'cracked', 'frame.']",
957,1,"[1, 1, 1, 1, 1, 1, 1, 1, 1, 1, 1, 1, 1]","[634, 783, 957, 571, 901, 808, 850, 975, 492, 698, 1161, 1492, 1056]","['x-x-x', 'expands', 'silver', 'drop', 'thus', 'male', 'site', 'relies', 'tend', 'sea', 'affairs', 'honesty', 'degree.']",0.0-22.0-0.2,25,"[0, 0, 1, 1, 1, 0, 1, 1, 0, 0, 0, 0, 1]",,"[634, 783, 957, 571, 901, 808, 850, 975, 492, 698, 1161, 1492, 1056]",The burglar opened the door with the credit card and quickly slipped inside.,,812298,42,maze,VP,"['The', 'burglar', 'opened', 'the', 'door', 'with', 'the', 'credit', 'card', 'and', 'quickly', 'slipped', 'inside.']",
957,1,,,,0.0-23.0,,,,,,,813314,43,html-button-response,,,
957,1,"[1, 1, 1, 1, 1, 1, 1, 1, 1, 1, 0, 1, 1, 1, 1, 1, 1, 1]","[1512, 1113, 704, 1078, 987, 1666, 1316, 837, 1459, 1550, 3317, 1184, 874, 1144, 750, 1868, 632, 816]","['x-x-x', 'costs', 'heat', 'account', 'message', 'gone', 'colonel', 'march', 'edition', 'need', 'basemen', 'ours.', 'x-x-x', 'stupid', 'kill', 'bureau', 'read', 'pros.']",0.0-24.0-0.0,27,"[1, 1, 1, 1, 0, 0, 1, 0, 0, 1, 1, 0, 0, 1, 0, 0, 0, 1]",,"[1512, 1113, 704, 1078, 987, 1666, 1316, 837, 1459, 1550, 2285, 1184, 874, 1144, 750, 1868, 632, 816]",A woman was looking through some clothes while holding some darning wool. She needed to repair a sock.,,836140,44,maze,setup,"['A', 'woman', 'was', 'looking', 'through', 'some', 'clothes', 'while', 'holding', 'some', 'darning', 'wool.', 'She', 'needed', 'to', 'repair', 'a', 'sock.']",
957,1,"[1, 1, 1, 1, 1, 1, 1, 1, 1, 1, 1, 1, 1, 1, 1, 1, 1, 1, 1, 1, 1, 1, 1, 1]","[738, 965, 1373, 892, 1120, 829, 1010, 632, 1158, 949, 810, 779, 918, 1065, 573, 865, 687, 1098, 799, 1605, 1604, 600, 1184, 1300]","['x-x-x', 'worse', 'unit', 'kill', 'eats', 'pull', 'outcome', 'try', 'tabs', 'basis', 'west', 'camp', 'vary', 'love', 'drug', 'note', 'tax', 'breeds', 'coast', 'tour', 'weekend', 'site', 'via', 'maps.']",0.0-24.0-0.1,27,"[0, 1, 1, 1, 1, 0, 0, 1, 0, 1, 0, 1, 0, 1, 1, 1, 0, 0, 1, 0, 0, 1, 1, 1]",,"[738, 965, 1373, 892, 1120, 829, 1010, 632, 1158, 949, 810, 779, 918, 1065, 573, 865, 687, 1098, 799, 1605, 1604, 600, 1184, 1300]",She found in the pile of clothes a sock which had a hole in it and a sock which was getting a bit thin.,,859698,45,maze,2-context,"['She', 'found', 'in', 'the', 'pile', 'of', 'clothes', 'a', 'sock', 'which', 'had', 'a', 'hole', 'in', 'it', 'and', 'a', 'sock', 'which', 'was', 'getting', 'a', 'bit', 'thin.']",
957,1,"[1, 1, 1, 1, 1, 0, 1, 1, 1, 1, 1, 1, 1, 1, 1]","[1258, 1061, 988, 903, 780, 1443, 723, 828, 1637, 2061, 863, 1168, 852, 848, 1143]","['x-x-x', 'apart', 'motorway', 'try', 'vivo', 'easy', 'west', 'amid', 'meet', 'pope', 'tour', 'exists', 'fun', 'ran', 'follows.']",0.0-24.0-0.2,27,"[0, 0, 1, 0, 1, 1, 0, 1, 1, 1, 1, 1, 1, 1, 0]",,"[1258, 1061, 988, 903, 780, 696, 723, 828, 1637, 2061, 863, 1168, 852, 848, 1143]",The woman repaired the sock with the hole but hurt her finger in the process.,,876263,46,maze,NP,"['The', 'woman', 'repaired', 'the', 'sock', 'with', 'the', 'hole', 'but', 'hurt', 'her', 'finger', 'in', 'the', 'process.']",
957,1,,,,0.0-25.0,,,,,,,877277,47,html-button-response,,,
957,1,"[1, 1, 1, 1, 1, 1, 1, 1, 1, 1, 1, 1, 1, 1, 1, 1]","[3750, 1147, 1017, 596, 633, 873, 1299, 825, 1767, 1171, 1424, 762, 911, 1071, 832, 653]","['x-x-x', 'packets', 'marry', 'term', 'grow', 'adds', 'deserves', 'yeah', 'climates.', 'x-x-x', 'painful', 'cent', 'wars', 'glad', 'gift', 'none.']",0.0-26.0-0.0,1,"[0, 0, 0, 0, 1, 1, 1, 0, 0, 0, 1, 0, 1, 0, 1, 0]",,"[3750, 1147, 1017, 596, 633, 873, 1299, 825, 1767, 1171, 1424, 762, 911, 1071, 832, 653]",A burglar broke into a bank carrying some dynamite. He planned to blow open a safe.,,896016,48,maze,setup,"['A', 'burglar', 'broke', 'into', 'a', 'bank', 'carrying', 'some', 'dynamite.', 'He', 'planned', 'to', 'blow', 'open', 'a', 'safe.']",
957,1,"[1, 1, 1, 1, 1, 1, 1, 1, 1, 1, 1, 1, 1, 1, 1, 1, 1, 1, 1, 1, 1, 1]","[836, 1782, 2267, 889, 1095, 1352, 472, 958, 1345, 664, 658, 901, 1190, 849, 1275, 734, 1279, 1085, 4152, 574, 1097, 747]","['x-x-x', 'senate', 'dad', 'sir', 'fund', 'agree', 'lord', 'vs', 'died', 'tells', 'cent', 'says', 'ago', 'mice', 'sad', 'pro', 'eradicate', 'worst', 'pre', 'oh', 'yeah', 'woke.']",0.0-26.0-0.1,1,"[1, 0, 1, 0, 0, 0, 1, 0, 0, 1, 1, 1, 1, 0, 0, 1, 0, 1, 1, 0, 0, 0]",,"[836, 1782, 2267, 889, 1095, 1352, 472, 958, 1345, 664, 658, 901, 1190, 849, 1275, 734, 1279, 1085, 4152, 574, 1097, 747]",Once inside he saw that there was a safe which had a new lock and a safe which had an old lock.,,922224,49,maze,2-context,"['Once', 'inside', 'he', 'saw', 'that', 'there', 'was', 'a', 'safe', 'which', 'had', 'a', 'new', 'lock', 'and', 'a', 'safe', 'which', 'had', 'an', 'old', 'lock.']",
957,1,"[1, 1, 1, 1, 1, 1, 1, 1, 1, 1, 1, 1, 1, 1, 1, 1]","[2183, 768, 839, 708, 1004, 1756, 1109, 826, 1493, 1277, 1213, 1842, 967, 807, 913, 1318]","['x-x-x', 'denoted', 'slim', 'date', 'yeah', 'glad', 'hate', 'app', 'explores', 'earn', 'sir', 'wish', 'ago', 'lord', 'fund', 'alma.']",0.0-26.0-0.2,1,"[1, 0, 0, 1, 1, 1, 0, 1, 1, 1, 0, 0, 1, 1, 0, 1]",,"[2183, 768, 839, 708, 1004, 1756, 1109, 826, 1493, 1277, 1213, 1842, 967, 807, 913, 1318]",The burglar blew open the safe with the new lock and made off with the loot.,,941253,50,maze,NP,"['The', 'burglar', 'blew', 'open', 'the', 'safe', 'with', 'the', 'new', 'lock', 'and', 'made', 'off', 'with', 'the', 'loot.']",
957,1,,,,0.0-27.0,,,,,,,942256,51,html-button-response,,,
957,1,"[1, 1, 1, 1, 1, 1, 1, 1, 1, 1, 1, 1, 1, 1, 1]","[2015, 1738, 2694, 1496, 571, 2531, 2194, 883, 906, 1094, 530, 1670, 1308, 662, 2012]","['x-x-x', 'raiders', 'ones', 'terminate', 'same', 'rioted', 'abuses.', 'x-x-x', 'guy', 'worry', 'sun', 'loud', 'lie', 'non', 'findings.']",0.0-28.0-0.0,17,"[0, 0, 1, 0, 1, 1, 0, 0, 0, 1, 0, 0, 0, 1, 1]",,"[2015, 1738, 2694, 1496, 571, 2531, 2194, 883, 906, 1094, 530, 1670, 1308, 662, 2012]",A chemist was adjusting a bunsen burner. He was about to heat up a solution.,,964568,52,maze,setup,"['A', 'chemist', 'was', 'adjusting', 'a', 'bunsen', 'burner.', 'He', 'was', 'about', 'to', 'heat', 'up', 'a', 'solution.']",
957,1,"[1, 1, 1, 1, 1, 1, 1, 1, 1, 1, 1, 1, 1, 1, 1, 1, 1, 1, 1]","[671, 2082, 1261, 1511, 684, 570, 997, 852, 823, 1161, 2100, 1295, 703, 873, 651, 1229, 1719, 1617, 1072]","['x-x-x', 'ring', 'ought', 'worse', 'cat', 'die', 'diseases', 'lives', 'girl', 'kiss', 'robotics', 'sea', 'hurt', 'gay', 'army', 'granted', 'physicians', 'ride', 'pier.']",0.0-28.0-0.1,17,"[0, 1, 1, 1, 1, 0, 1, 1, 1, 1, 0, 1, 1, 0, 0, 0, 0, 1, 1]",,"[671, 2082, 1261, 1511, 684, 570, 997, 852, 823, 1161, 2100, 1295, 703, 873, 651, 1229, 1719, 1617, 1072]",On his bench there was a solution which had blue crystals in it and a solution containing red dye.,,986445,53,maze,2-context,"['On', 'his', 'bench', 'there', 'was', 'a', 'solution', 'which', 'had', 'blue', 'crystals', 'in', 'it', 'and', 'a', 'solution', 'containing', 'red', 'dye.']",
957,1,"[1, 1, 1, 1, 1, 1, 1, 1, 1, 1, 1, 1, 1, 1]","[1049, 932, 2118, 723, 621, 700, 902, 2994, 1645, 1011, 996, 731, 1117, 1477]","['x-x-x', 'expands', 'brakes', 'gain', 'becoming', 'fear', 'park', 'haunts', 'weddings', 'fun', 'ride', 'mum', 'nice', 'mark.']",0.0-28.0-0.2,17,"[1, 0, 0, 0, 1, 1, 0, 1, 0, 0, 0, 0, 0, 1]",,"[1049, 932, 2118, 723, 621, 700, 902, 2994, 1645, 1011, 996, 731, 1117, 1477]",The chemist heated the solution with the bunsen burner but the gas went out.,,1003466,54,maze,VP,"['The', 'chemist', 'heated', 'the', 'solution', 'with', 'the', 'bunsen', 'burner', 'but', 'the', 'gas', 'went', 'out.']",
957,1,,,,0.0-29.0,,,,,,,1004469,55,html-button-response,,,
957,1,"[1, 1, 1, 1, 1, 1, 1, 1, 1, 0, 1, 1, 1, 1, 1, 1, 1]","[1787, 998, 1047, 1196, 897, 1662, 834, 1616, 609, 2141, 1574, 714, 887, 1612, 1200, 998, 558]","['x-x-x', 'pots', 'gold', 'took', 'thus', 'method', 'tons', 'teachers', 'rate', 'reap', 'earn.', 'x-x-x', 'door', 'foot', 'echinoderms', 'cup', 'sits.']",0.0-30.0-0.0,19,"[1, 1, 1, 0, 1, 0, 0, 1, 0, 0, 1, 0, 0, 0, 1, 1, 1]",,"[1787, 998, 1047, 1196, 897, 1662, 834, 1616, 609, 1434, 1574, 714, 887, 1612, 1200, 998, 558]",A vet went into an animal cage carrying a dart gun. He had to tranquilise a lion.,,1024808,56,maze,setup,"['A', 'vet', 'went', 'into', 'an', 'animal', 'cage', 'carrying', 'a', 'dart', 'gun.', 'He', 'had', 'to', 'tranquilise', 'a', 'lion.']",
957,1,"[1, 1, 1, 1, 1, 1, 1, 1, 1, 1, 1, 1, 1, 1, 1, 1, 1, 1, 1, 1, 1, 1]","[1234, 1159, 1084, 1571, 711, 680, 683, 1281, 847, 696, 990, 1698, 1104, 663, 1075, 1308, 1802, 936, 1016, 961, 1794, 1839]","['x-x-x', 'girl', 'warn', 'guess', 'fan', 'die', 'aids', 'same', 'cash', 'job', 'gets', 'alma', 'holy', 'tax', 'sans', 'poor', 'income', 'rich', 'list', 'plat', 'drug', 'met.']",0.0-30.0-0.1,19,"[1, 1, 1, 0, 1, 1, 0, 0, 0, 1, 1, 1, 1, 0, 0, 0, 1, 0, 1, 1, 1, 1]",,"[1234, 1159, 1084, 1571, 711, 680, 683, 1281, 847, 696, 990, 1698, 1104, 663, 1075, 1308, 1802, 936, 1016, 961, 1794, 1839]",Inside the cage there was a lion that had a big mane and a lion that didn't have any mane at all.,,1049945,57,maze,2-context,"['Inside', 'the', 'cage', 'there', 'was', 'a', 'lion', 'that', 'had', 'a', 'big', 'mane', 'and', 'a', 'lion', 'that', ""didn't"", 'have', 'any', 'mane', 'at', 'all.']",
957,1,"[1, 1, 1, 1, 1, 1, 1, 1, 1, 1, 1, 1, 1]","[746, 890, 921, 776, 511, 1526, 744, 922, 879, 877, 1097, 1545, 781]","['x-x-x', 'slid', 'minesweeping', 'loss', 'ours', 'same', 'add', 'quo', 'hoc', 'year', 'term', 'premiums', 'gone.']",0.0-30.0-0.2,19,"[0, 0, 1, 1, 1, 1, 1, 0, 1, 0, 1, 1, 1]",,"[746, 890, 921, 776, 511, 1526, 744, 922, 879, 877, 1097, 1545, 781]",The vet tranquilised the lion with the big mane and then examined it.,,1062166,58,maze,NP,"['The', 'vet', 'tranquilised', 'the', 'lion', 'with', 'the', 'big', 'mane', 'and', 'then', 'examined', 'it.']",
957,1,,,,0.0-31.0,,,,,,,1063171,59,html-button-response,,,
957,1,"[1, 1, 1, 1, 1, 1, 1, 1, 1, 1, 1, 1, 1, 1, 1, 1, 1, 1, 1, 1, 1]","[1128, 954, 691, 963, 623, 821, 794, 682, 1385, 771, 648, 2069, 3172, 541, 867, 1391, 576, 774, 1349, 814, 677]","['x-x-x', 'democrats', 'loss', 'dollars', 'idea', 'fat', 'rays', 'wild', 'doubt', 'rule', 'rise', 'trends', 'tragically.', 'x-x-x', 'sick', 'ride', 'base', 'inch', 'gets', 'seen', 'expect.']",0.0-32.0-0.0,24,"[1, 0, 0, 1, 1, 1, 1, 0, 0, 0, 0, 1, 1, 0, 1, 1, 0, 1, 0, 0, 1]",,"[1128, 954, 691, 963, 623, 821, 794, 682, 1385, 771, 648, 2069, 3172, 541, 867, 1391, 576, 774, 1349, 814, 677]",A secretary was sitting at her desk on which was a manual typewriter. She was told to type up a report.,,1084868,60,maze,setup,"['A', 'secretary', 'was', 'sitting', 'at', 'her', 'desk', 'on', 'which', 'was', 'a', 'manual', 'typewriter.', 'She', 'was', 'told', 'to', 'type', 'up', 'a', 'report.']",
957,1,"[1, 1, 1, 1, 1, 1, 1, 1, 1, 1, 1, 1, 1, 1, 1]","[602, 650, 1374, 575, 851, 1388, 539, 1411, 649, 933, 1050, 1294, 671, 1152, 1195]","['x-x-x', 'boy', 'brooks', 'lie', 'beyond', 'eastern', 'saw', 'persists', 'foot', 'sick', 'expect', 'nations', 'feel', 'seriously', 'quietly.']",0.0-32.0-0.1,24,"[0, 0, 0, 0, 1, 1, 0, 1, 1, 1, 0, 1, 0, 0, 1]",,"[602, 650, 1374, 575, 851, 1388, 539, 1411, 649, 933, 1050, 1294, 671, 1152, 1195]",She was handed a report covered in diagrams and a letter written in different colours.,,1099209,61,maze,1-context,"['She', 'was', 'handed', 'a', 'report', 'covered', 'in', 'diagrams', 'and', 'a', 'letter', 'written', 'in', 'different', 'colours.']",
957,1,"[1, 1, 1, 1, 1, 1, 1, 1, 1, 1, 1, 1, 1, 1]","[976, 816, 945, 916, 1188, 727, 670, 929, 1086, 1114, 915, 1461, 605, 626]","['x-x-x', 'recommend', 'spicy', 'feet', 'ring', 'happen', 'wear', 'goes', 'worshipped', 'sea', 'east', 'pain', 'may', 'trans.']",0.0-32.0-0.2,24,"[1, 0, 1, 0, 0, 1, 1, 0, 1, 0, 0, 0, 0, 1]",,"[976, 816, 945, 916, 1188, 727, 670, 929, 1086, 1114, 915, 1461, 605, 626]",The secretary typed up the report with the typewriter and then went to lunch.,,1112187,62,maze,VP,"['The', 'secretary', 'typed', 'up', 'the', 'report', 'with', 'the', 'typewriter', 'and', 'then', 'went', 'to', 'lunch.']",
957,1,,,,0.0-33.0,,,,,,,1113188,63,html-button-response,,,
957,1,"[1, 0, 1, 1, 1, 1, 1, 1, 1, 1, 1, 1, 1, 1, 1, 1, 1, 0]","[4499, 4773, 705, 1380, 689, 651, 1034, 1360, 611, 869, 913, 972, 642, 1672, 866, 670, 763, 1390]","['x-x-x', 'brothels', 'lots', 'deserve', 'apply', 'grow', 'option', 'nonsense', 'kill', 'shall', 'kings.', 'x-x-x', 'lot', 'memories', 'am', 'unless', 'want', 'instances.']",0.0-34.0-0.0,13,"[0, 1, 0, 1, 0, 1, 1, 1, 1, 1, 0, 0, 1, 0, 0, 1, 1, 0]",,"[4499, 3799, 705, 1380, 689, 651, 1034, 1360, 611, 869, 913, 972, 642, 1672, 866, 670, 763, 870]",A skinhead was walking along a street carrying a large knife. He was planning to attack a policeman.,,1137661,64,maze,setup,"['A', 'skinhead', 'was', 'walking', 'along', 'a', 'street', 'carrying', 'a', 'large', 'knife.', 'He', 'was', 'planning', 'to', 'attack', 'a', 'policeman.']",
957,1,"[1, 1, 1, 1, 1, 1, 1, 1, 1, 1, 1, 1, 1, 1, 1, 1, 1, 1]","[723, 1027, 948, 540, 1022, 1022, 995, 606, 1317, 956, 910, 1033, 1025, 758, 1167, 1426, 856, 1576]","['x-x-x', 'girlfriend', 'wild', 'feel', 'terminals', 'holy', 'lake', 'page', 'users', 'jays', 'kids', 'meet', 'born', 'buy', 'deal', 'enrolment', 'nations', 'observable.']",0.0-34.0-0.1,13,"[1, 0, 0, 1, 1, 1, 1, 0, 0, 1, 0, 1, 1, 1, 1, 0, 1, 0]",,"[723, 1027, 948, 540, 1022, 1022, 995, 606, 1317, 956, 910, 1033, 1025, 758, 1167, 1426, 856, 1576]",He eventually saw a policeman who had a large scar on his face and a policewoman wearing spectacles.,,1155573,65,maze,1-context,"['He', 'eventually', 'saw', 'a', 'policeman', 'who', 'had', 'a', 'large', 'scar', 'on', 'his', 'face', 'and', 'a', 'policewoman', 'wearing', 'spectacles.']",
957,1,"[1, 1, 1, 1, 1, 1, 1, 1, 1, 1, 1, 1, 1]","[651, 1199, 1315, 960, 696, 1219, 847, 2300, 1280, 647, 749, 1200, 715]","['x-x-x', 'imitated', 'grateful', 'provider', 'want', 'comprises', 'date', 'grow', 'owns', 'lots', 'mean', 'sake', 'sold.']",0.0-34.0-0.2,13,"[1, 0, 0, 1, 1, 1, 0, 0, 1, 1, 0, 1, 1]",,"[651, 1199, 1315, 960, 696, 1219, 847, 2300, 1280, 647, 749, 1200, 715]",The skinhead suddenly attacked the policeman with the scar and then ran off.,,1169356,66,maze,NP,"['The', 'skinhead', 'suddenly', 'attacked', 'the', 'policeman', 'with', 'the', 'scar', 'and', 'then', 'ran', 'off.']",
957,1,,,,0.0-35.0,,,,,,,1170369,67,html-button-response,,,
957,1,,,,0.0-36.0,,,"{'other': 'None', 'errors': 'None', 'length': 'Shorter', 'strange': 'None', 'understand': 'Yes', 'what-about': 'Critical thinking'}",58278,,,1228657,68,survey-text,,,
957,1,,,,0.0-37.0,,,0,2276,,<h2>Many thanks for participating!</h2><p>We are interested in how people integrate the words they read into the context of the sentence so far.<h1>Press continue to be redirected to Prolific. </h1>,1230935,69,html-button-response,,,
1044,1,,,,0.0-0.0,,,0,7233,," <center><img width=""300px"" src=""assets/stanford.png"" /></center><div id=""legal""></br>By answering the following questions, you are participating in a study being performed by cognitive scientists in the Stanford Department of Psychology. If you have questions about this research, please contact us at  <a href=""mailto://languagecoglab@gmail.com.""> languagecoglab@gmail.com</a>.You must be at least 18 years old to participate. Your participation in this research is voluntary. You may decline to answer any or all of the following questions. You may decline further participation, at any time, without adverse consequences. Your anonymity is assured; the researchers who have requested your participation will not receive any personal information about you. </div></br>",7249,0,html-button-response,,,
1044,1,,,,0.0-1.0,,,0,21281,,"<h3>Please read these instructions carefully!</h3> </br><p>For this experiment, please place your <b>left index finger on the 'e' key</b> and your <b>right index finger on the 'i' key</b>.</p><p> You will read sentences word by word. However, you will have to guess which word comes next. On each screen you will see two options: one will be the next word in the sentence, and one will not. </p><p><b>Select the word that continues the sentence by pressing 'e' (left-hand) for the word on the left or pressing 'i' (right-hand) for the word on the right.</b></p><p>Select the best word as quickly as you can, but without making too many errors. </p><div><p>Click ""Continue"" to try this on a practice sentence.</p></div>",28535,1,html-button-response,,,
1044,1,"[1, 1, 1, 1, 1, 1, 1, 1, 1, 1, 1, 1, 1, 1]","[82059, 1749, 599, 934, 1134, 602, 598, 1536, 801, 591, 1077, 555, 456, 532]","['x-x-x', 'whom', 'knew', 'appeared', 'emotions', 'know', 'dad', 'lake', 'edition', 'jack', 'fans', 'fund', 'grow', 'died.']",0.0-2.0,,"[0, 1, 0, 1, 1, 0, 1, 0, 1, 1, 1, 1, 1, 0]",,"[82059, 1749, 599, 934, 1134, 602, 598, 1536, 801, 591, 1077, 555, 456, 532]",,,121785,2,maze,,"['This', 'is', 'a', 'practice', 'sentence', 'that', 'you', 'are', 'reading', 'one', 'word', 'at', 'a', 'time.']",
1044,1,,,,0.0-3.0,,,0,4229,,"<h3>Please read these instructions carefully!</h3> </br><p>Great job! Now you are ready for the main experiment.</p><p> You will now read 16 short stories in the same word-by-word way.</p><div><p>Click ""Continue"" to start the experiment.</p>",126016,3,html-button-response,,,
1044,1,"[1, 1, 1, 1, 1, 1, 1, 1, 1, 1, 1, 1, 1, 1, 1, 1, 1]","[5503, 1306, 808, 633, 486, 788, 627, 853, 495, 1275, 654, 858, 702, 905, 642, 650, 1034]","['x-x-x', 'prices', 'purple', 'goal', 'met', 'anymore', 'save', 'missions', 'die', 'refinements.', 'x-x-x', 'gameplay', 'spot', 'bonuses', 'shut', 'users', 'streets.']",0.0-4.0-0.0,23,"[1, 0, 1, 0, 1, 0, 1, 0, 0, 1, 0, 1, 1, 0, 1, 0, 0]",,"[5503, 1306, 808, 633, 486, 788, 627, 853, 495, 1275, 654, 858, 702, 905, 642, 650, 1034]",A doctor walked into a waiting room carrying a stethoscope. He’d arranged to examine a woman patient.,,144269,4,maze,setup,"['A', 'doctor', 'walked', 'into', 'a', 'waiting', 'room', 'carrying', 'a', 'stethoscope.', 'He’d', 'arranged', 'to', 'examine', 'a', 'woman', 'patient.']",
1044,1,"[1, 1, 1, 1, 1, 1, 1, 1, 1, 1, 1, 1, 1, 1, 1, 1, 1, 1, 1, 1, 1]","[537, 658, 669, 474, 525, 785, 640, 668, 574, 550, 467, 808, 715, 596, 806, 529, 757, 489, 514, 1024, 523]","['x-x-x', 'pick', 'noticed', 'gone', 'weird', 'pop', 'took', 'lives', 'our', 'sun', 'band', 'researchers', 'fans', 'why', 'teams', 'self', 'option', 'tour', 'cell', 'android', 'abbot.']",0.0-4.0-0.1,23,"[1, 0, 0, 0, 0, 1, 1, 1, 0, 0, 0, 0, 1, 0, 0, 1, 0, 0, 0, 1, 0]",,"[537, 658, 669, 474, 525, 785, 640, 668, 574, 550, 467, 808, 715, 596, 806, 529, 757, 489, 514, 1024, 523]",In the waiting room there was a woman who had a temperature and a woman who seemed to have stomach pains.,,157594,5,maze,2-context,"['In', 'the', 'waiting', 'room', 'there', 'was', 'a', 'woman', 'who', 'had', 'a', 'temperature', 'and', 'a', 'woman', 'who', 'seemed', 'to', 'have', 'stomach', 'pains.']",
1044,1,"[1, 1, 1, 1, 1, 1, 1, 1, 1, 1, 1, 1]","[645, 451, 797, 490, 519, 659, 611, 869, 828, 869, 897, 715]","['x-x-x', 'afford', 'feminism', 'ride', 'knows', 'push', 'does', 'enthusiasts', 'easy', 'yourself', 'east', 'sold.']",0.0-4.0-0.2,23,"[1, 0, 1, 0, 0, 0, 1, 0, 0, 1, 1, 0]",,"[645, 451, 797, 490, 519, 659, 611, 869, 828, 869, 897, 715]",The doctor examined the woman with the stethoscope but couldn't help her.,,165957,6,maze,VP,"['The', 'doctor', 'examined', 'the', 'woman', 'with', 'the', 'stethoscope', 'but', ""couldn't"", 'help', 'her.']",
1044,1,,,,0.0-5.0,,,,,,,166960,7,html-button-response,,,
1044,1,"[1, 1, 1, 1, 1, 1, 1, 1, 1, 1, 1, 1, 1, 1, 1, 1, 1, 1, 1, 1]","[7447, 2185, 859, 532, 1117, 856, 940, 938, 725, 651, 2295, 917, 685, 504, 1025, 543, 704, 1187, 723, 708]","['x-x-x', 'disagreements', 'decade', 'lake', 'heard', 'democrat', 'miss', 'attest', 'vain.', 'x-x-x', 'emplacements', 'carol', 'lady', 'jack', 'mouth', 'anti', 'hill', 'cops', 'bag', 'nor.']",0.0-6.0-0.0,4,"[0, 0, 1, 0, 0, 0, 1, 0, 0, 1, 0, 0, 1, 0, 1, 0, 1, 1, 0, 1]",,"[7447, 2185, 859, 532, 1117, 856, 940, 938, 725, 651, 2295, 917, 685, 504, 1025, 543, 704, 1187, 723, 708]",A schoolteacher walked into class carrying a bamboo cane. He sadistically hoped that he would have to beat a boy.,,192519,8,maze,setup,"['A', 'schoolteacher', 'walked', 'into', 'class', 'carrying', 'a', 'bamboo', 'cane.', 'He', 'sadistically', 'hoped', 'that', 'he', 'would', 'have', 'to', 'beat', 'a', 'boy.']",
1044,1,"[1, 1, 1, 1, 1, 1, 1, 1, 1, 1, 1, 1, 1, 1, 1, 1, 1, 1, 1, 1, 1, 1, 1]","[659, 1408, 734, 611, 577, 519, 557, 1431, 575, 538, 801, 701, 735, 626, 930, 577, 846, 1130, 725, 740, 798, 686, 824]","['x-x-x', 'deserved', 'okay', 'luck', 'jack', 'miss', 'nor', 'ways', 'mid', 'sale', 'prices', 'via', 'tax', 'vs', 'till', 'anti', 'sour', 'achieve', 'market', 'types', 'al', 'soul', 'plus.']",0.0-6.0-0.1,4,"[1, 0, 0, 0, 0, 1, 1, 0, 0, 0, 1, 1, 1, 0, 0, 1, 1, 1, 0, 1, 1, 1, 1]",,"[659, 1408, 734, 611, 577, 519, 557, 1431, 575, 538, 801, 701, 735, 626, 930, 577, 846, 1130, 725, 740, 798, 686, 824]",On entering he saw that a boy who had a broken leg and a girl who wore glasses didn't stand up for him.,,210257,9,maze,1-context,"['On', 'entering', 'he', 'saw', 'that', 'a', 'boy', 'who', 'had', 'a', 'broken', 'leg', 'and', 'a', 'girl', 'who', 'wore', 'glasses', ""didn't"", 'stand', 'up', 'for', 'him.']",
1044,1,"[1, 1, 1, 1, 1, 1, 1, 1, 1, 1, 1, 1, 1, 1, 1]","[1037, 1304, 1086, 670, 543, 669, 825, 965, 648, 1177, 650, 726, 621, 637, 630]","['x-x-x', 'characterised', 'anti', 'seem', 'nor', 'date', 'know', 'exists', 'vary', 'fact', 'sale', 'via', 'global', 'wars', 'laws.']",0.0-6.0-0.2,4,"[1, 0, 0, 0, 1, 1, 1, 1, 1, 1, 0, 0, 1, 1, 0]",,"[1037, 1304, 1086, 670, 543, 669, 825, 965, 648, 1177, 650, 726, 621, 637, 630]",The schoolteacher beat the boy with the broken leg but the boy didn't cry out.,,222457,10,maze,NP,"['The', 'schoolteacher', 'beat', 'the', 'boy', 'with', 'the', 'broken', 'leg', 'but', 'the', 'boy', ""didn't"", 'cry', 'out.']",
1044,1,,,,0.0-7.0,,,,,,,223474,11,html-button-response,,,
1044,1,"[1, 1, 1, 1, 1, 1, 1, 1, 1, 1, 1, 1, 1, 1, 1, 1, 1, 1]","[1006, 938, 851, 820, 519, 1081, 808, 948, 976, 665, 765, 558, 757, 624, 770, 799, 641, 861]","['x-x-x', 'revolts', 'liquids', 'deal', 'cat', 'freemen', 'expenses', 'lose', 'whom.', 'x-x-x', 'feelings', 'bag', 'than', 'says', 'kid', 'imagine', 'mom', 'versa.']",0.0-8.0-0.0,9,"[0, 0, 0, 1, 1, 1, 0, 1, 0, 0, 1, 1, 1, 0, 0, 0, 1, 1]",,"[1006, 938, 851, 820, 519, 1081, 808, 948, 976, 665, 765, 558, 757, 624, 770, 799, 641, 861]",A workman climbed down a manhole carrying a saw. He expected to have to cut through a valve.,,237877,12,maze,setup,"['A', 'workman', 'climbed', 'down', 'a', 'manhole', 'carrying', 'a', 'saw.', 'He', 'expected', 'to', 'have', 'to', 'cut', 'through', 'a', 'valve.']",
1044,1,"[1, 1, 1, 1, 1, 1, 1, 1, 1, 0, 1, 1, 1, 1, 1, 1, 1, 1, 1, 1, 1, 1, 1, 1, 1]","[812, 713, 916, 567, 783, 448, 871, 595, 634, 1208, 2839, 677, 825, 543, 513, 732, 607, 1244, 434, 802, 1166, 545, 732, 653, 476]","['x-x-x', 'wait', 'aspired', 'sure', 'truth', 'lot', 'acids', 'sorry', 'hill', 'page', 'jobs', 'lake', 'cubs', 'list', 'hour', 'god', 'laws', 'ethnic', 'self', 'pros', 'goals', 'male', 'vote', 'rallies', 'sell.']",0.0-8.0-0.1,9,"[1, 1, 1, 1, 1, 1, 0, 1, 0, 1, 0, 0, 1, 0, 1, 1, 1, 0, 0, 1, 1, 1, 1, 0, 0]",,"[812, 713, 916, 567, 783, 448, 871, 595, 634, 530, 2839, 677, 825, 543, 513, 732, 607, 1244, 434, 802, 1166, 545, 732, 653, 476]",Down the manhole he found a valve which had a lot of rust on it and a section of pipe which had been leaking gas.,,258237,13,maze,1-context,"['Down', 'the', 'manhole', 'he', 'found', 'a', 'valve', 'which', 'had', 'a', 'lot', 'of', 'rust', 'on', 'it', 'and', 'a', 'section', 'of', 'pipe', 'which', 'had', 'been', 'leaking', 'gas.']",
1044,1,"[1, 1, 1, 1, 1, 1, 1, 1, 1, 1, 1, 1, 1, 1]","[790, 1128, 819, 685, 584, 665, 568, 549, 618, 698, 713, 637, 688, 801]","['x-x-x', 'denoted', 'sad', 'imagine', 'okay', 'forth', 'poor', 'says', 'pays', 'senate', 'studios', 'buy', 'guys', 'him.']",0.0-8.0-0.2,9,"[0, 0, 1, 1, 1, 1, 0, 0, 0, 1, 0, 1, 1, 1]",,"[790, 1128, 819, 685, 584, 665, 568, 549, 618, 698, 713, 637, 688, 801]",The workman cut through the valve with the saw before fitting a new one.,,268196,14,maze,VP,"['The', 'workman', 'cut', 'through', 'the', 'valve', 'with', 'the', 'saw', 'before', 'fitting', 'a', 'new', 'one.']",
1044,1,,,,0.0-9.0,,,,,,,269199,15,html-button-response,,,
1044,1,"[1, 1, 0, 1, 1, 1, 0, 1, 1, 1, 1, 1, 1, 1, 1, 1, 1, 1, 1]","[697, 915, 2593, 683, 806, 716, 5625, 1018, 1301, 553, 1503, 892, 684, 700, 1444, 624, 850, 525, 1030]","['x-x-x', 'aftermath', 'luck', 'dollars', 'al', 'hurt', 'Happens', 'Forget', 'require', 'lose', 'dermatitis', 'ideas.', 'x-x-x', 'odds', 'idea', 'hate', 'miles', 'bet', 'suck.']",0.0-10.0-0.0,6,"[0, 1, 1, 0, 1, 0, 0, 1, 1, 0, 1, 0, 1, 0, 1, 0, 0, 0, 0]",,"[697, 915, 543, 683, 806, 716, 736, 1018, 1301, 553, 1503, 892, 684, 700, 1444, 624, 850, 525, 1030]",A historian was working in the British Museum holding a magnifying glass. He’d sat down to study a map.,,292392,16,maze,setup,"['A', 'historian', 'was', 'working', 'in', 'the', 'British', 'Museum', 'holding', 'a', 'magnifying', 'glass.', 'He’d', 'sat', 'down', 'to', 'study', 'a', 'map.']",
1044,1,"[1, 1, 1, 1, 1, 1, 1, 1, 1, 1, 1, 1, 1, 1, 1, 1, 1, 1, 1, 1]","[3949, 781, 730, 622, 522, 436, 771, 497, 648, 624, 1353, 716, 634, 824, 1272, 958, 864, 752, 1294, 766]","['x-x-x', 'dad', 'tons', 'queen', 'soul', 'knew', 'whom', 'goals', 'mom', 'vote', 'cosmetics', 'pigs', 'kids', 'pro', 'investing', 'trump', 'salary', 'girl', 'happens', 'employees.']",0.0-10.0-0.1,6,"[1, 0, 0, 1, 0, 0, 1, 0, 1, 0, 0, 1, 0, 1, 0, 1, 1, 1, 1, 0]",,"[3949, 781, 730, 622, 522, 436, 771, 497, 648, 624, 1353, 716, 634, 824, 1272, 958, 864, 752, 1294, 766]",On his desk there was a map which had an appalling tear and a manuscript which seemed in perfect condition.,,311421,17,maze,1-context,"['On', 'his', 'desk', 'there', 'was', 'a', 'map', 'which', 'had', 'an', 'appalling', 'tear', 'and', 'a', 'manuscript', 'which', 'seemed', 'in', 'perfect', 'condition.']",
1044,1,"[1, 1, 1, 1, 1, 1, 1, 1, 1, 1, 1, 1, 1, 1, 1, 1]","[693, 1057, 1082, 799, 816, 540, 737, 739, 557, 859, 653, 643, 558, 504, 675, 620]","['x-x-x', 'adulthood', 'kids', 'oh', 'china', 'door', 'bye', 'wait', 'eat', 'reimbursed', 'whom', 'mom', 'card', 'rise', 'types', 'bill.']",0.0-10.0-0.2,6,"[1, 1, 0, 0, 0, 0, 1, 1, 0, 1, 1, 0, 0, 0, 0, 0]",,"[693, 1057, 1082, 799, 816, 540, 737, 739, 557, 859, 653, 643, 558, 504, 675, 620]",The historian had to study the map with the magnifying glass so as to value it.,,322964,18,maze,VP,"['The', 'historian', 'had', 'to', 'study', 'the', 'map', 'with', 'the', 'magnifying', 'glass', 'so', 'as', 'to', 'value', 'it.']",
1044,1,,,,0.0-11.0,,,,,,,323976,19,html-button-response,,,
1044,1,"[1, 1, 1, 0, 1, 1, 1, 1, 1, 1, 1, 1, 1, 1, 1, 1, 1]","[799, 1193, 908, 1164, 728, 576, 1362, 1005, 621, 766, 543, 672, 451, 520, 576, 575, 632]","['x-x-x', 'contexts', 'gold', 'explain', 'pick', 'fans', 'sounds', 'attendees', 'won', 'surnames.', 'x-x-x', 'moment', 'fell', 'cell', 'wife', 'try', 'sake.']",0.0-12.0-0.0,30,"[0, 0, 1, 1, 1, 1, 0, 1, 0, 0, 0, 0, 0, 0, 1, 0, 0]",,"[799, 1193, 908, 590, 728, 576, 1362, 1005, 621, 766, 543, 672, 451, 520, 576, 575, 632]",A gardener was working in a garden adjusting a chainsaw. He needed to cut down a tree.,,337088,20,maze,setup,"['A', 'gardener', 'was', 'working', 'in', 'a', 'garden', 'adjusting', 'a', 'chainsaw.', 'He', 'needed', 'to', 'cut', 'down', 'a', 'tree.']",
1044,1,"[1, 1, 1, 1, 1, 1, 1, 1, 1, 1, 0, 1, 1, 1, 1, 1, 1, 1, 1]","[639, 615, 771, 1029, 576, 581, 672, 410, 1115, 567, 1127, 1524, 894, 633, 824, 942, 1222, 964, 717]","['x-x-x', 'wall', 'networks', 'come', 'felt', 'adds', 'realize', 'need', 'isometry', 'easy', 'us', 'fees', 'aware', 'win', 'race', 'earn', 'pull', 'uses', 'cars.']",0.0-12.0-0.1,30,"[1, 0, 1, 1, 0, 0, 0, 0, 0, 0, 1, 1, 1, 1, 1, 1, 0, 0, 0]",,"[639, 615, 771, 1029, 576, 581, 672, 410, 1115, 567, 553, 1524, 894, 633, 824, 942, 1222, 964, 717]",He was standing by a tree covered in greenfly and a tree which had been dead a long time.,,352937,21,maze,2-context,"['He', 'was', 'standing', 'by', 'a', 'tree', 'covered', 'in', 'greenfly', 'and', 'a', 'tree', 'which', 'had', 'been', 'dead', 'a', 'long', 'time.']",
1044,1,"[1, 1, 1, 1, 1, 1, 1, 1, 1, 1, 1, 1, 1, 1, 1]","[835, 873, 736, 784, 862, 680, 718, 656, 1532, 783, 798, 786, 717, 1421, 481]","['x-x-x', 'authored', 'gold', 'pick', 'read', 'asks', 'draw', 'role', 'concedes', 'our', 'star', 'news', 'belt', 'click', 'seat.']",0.0-12.0-0.2,30,"[0, 0, 0, 1, 1, 0, 0, 0, 1, 1, 1, 0, 0, 0, 0]",,"[835, 873, 736, 784, 862, 680, 718, 656, 1532, 783, 798, 786, 717, 1421, 481]",The gardener cut down the tree with the greenfly but was very sad about it.,,365615,22,maze,NP,"['The', 'gardener', 'cut', 'down', 'the', 'tree', 'with', 'the', 'greenfly', 'but', 'was', 'very', 'sad', 'about', 'it.']",
1044,1,,,,0.0-13.0,,,,,,,366620,23,html-button-response,,,
1044,1,"[1, 1, 1, 1, 1, 1, 1, 1, 1, 1, 1, 1, 1, 1, 1, 1, 1, 1]","[7897, 1289, 875, 801, 660, 800, 928, 775, 630, 615, 823, 906, 565, 752, 618, 768, 756, 963]","['x-x-x', 'mergers', 'aspects', 'nice', 'glad', 'adds', 'medicinal', 'know', 'kings.', 'x-x-x', 'lot', 'memories', 'lose', 'except', 'guy', 'denote', 'ones', 'celebrate.']",0.0-14.0-0.0,3,"[0, 1, 0, 1, 1, 1, 0, 1, 0, 1, 1, 1, 1, 0, 1, 1, 0, 1]",,"[7897, 1289, 875, 801, 660, 800, 928, 775, 630, 615, 823, 906, 565, 752, 618, 768, 756, 963]",A convict escaped from his cell clutching a knife. He was prepared to attack a warden if necessary.,,388055,24,maze,setup,"['A', 'convict', 'escaped', 'from', 'his', 'cell', 'clutching', 'a', 'knife.', 'He', 'was', 'prepared', 'to', 'attack', 'a', 'warden', 'if', 'necessary.']",
1044,1,"[1, 1, 1, 1, 1, 1, 1, 1, 1, 1, 1, 1, 1, 1, 1, 1, 1, 1]","[738, 799, 556, 911, 749, 749, 1176, 667, 959, 651, 641, 652, 672, 627, 788, 626, 1185, 1030]","['x-x-x', 'profile', 'dad', 'pre', 'am', 'waived', 'sources', 'oh', 'hates', 'us', 'owns', 'year', 'mean', 'optimism', 'eastern', 'vs', 'laws', 'canonized.']",0.0-14.0-0.1,3,"[0, 1, 1, 1, 1, 0, 0, 0, 0, 0, 0, 0, 1, 0, 1, 1, 1, 0]",,"[738, 799, 556, 911, 749, 749, 1176, 667, 959, 651, 641, 652, 672, 627, 788, 626, 1185, 1030]",Once outside he saw a warden holding a bunch of keys and a policeman holding a long truncheon.,,402245,25,maze,1-context,"['Once', 'outside', 'he', 'saw', 'a', 'warden', 'holding', 'a', 'bunch', 'of', 'keys', 'and', 'a', 'policeman', 'holding', 'a', 'long', 'truncheon.']",
1044,1,"[1, 1, 1, 1, 1, 1, 1, 1, 1, 1, 1, 1, 1]","[679, 953, 959, 973, 819, 777, 744, 812, 737, 711, 794, 752, 955]","['x-x-x', 'waivers', 'vacation', 'amicus', 'fund', 'done', 'loaned', 'miss', 'ago', 'meets', 'wonder', 'website', 'app.']",0.0-14.0-0.2,3,"[0, 0, 0, 0, 0, 1, 0, 1, 1, 0, 0, 1, 1]",,"[679, 953, 959, 973, 819, 777, 744, 812, 737, 711, 794, 752, 955]",The convict suddenly lunged at the warden with the keys before running off.,,412924,26,maze,NP,"['The', 'convict', 'suddenly', 'lunged', 'at', 'the', 'warden', 'with', 'the', 'keys', 'before', 'running', 'off.']",
1044,1,,,,0.0-15.0,,,,,,,413931,27,html-button-response,,,
1044,1,"[1, 1, 1, 1, 1, 1, 1, 1, 1, 1, 1, 1, 1, 1, 1, 1, 1, 1, 1]","[920, 985, 977, 796, 673, 592, 707, 909, 846, 1180, 1083, 611, 641, 780, 598, 678, 770, 755, 561]","['x-x-x', 'habitats', 'finals', 'god', 'cent', 'soul', 'sir', 'churches', 'yeah', 'expand', 'rarity.', 'x-x-x', 'amazing', 'mess', 'sale', 'app', 'senate', 'pre', 'dams.']",0.0-16.0-0.0,2,"[1, 0, 1, 1, 1, 1, 1, 0, 0, 0, 1, 1, 0, 1, 0, 1, 0, 1, 0]",,"[920, 985, 977, 796, 673, 592, 707, 909, 846, 1180, 1083, 611, 641, 780, 598, 678, 770, 755, 561]",A mechanic walked up to a car carrying a monkey wrench. He thought he’d have to change a tyre.,,429008,28,maze,setup,"['A', 'mechanic', 'walked', 'up', 'to', 'a', 'car', 'carrying', 'a', 'monkey', 'wrench.', 'He', 'thought', 'he’d', 'have', 'to', 'change', 'a', 'tyre.']",
1044,1,"[1, 1, 1, 1, 1, 1, 1, 1, 1, 1, 1, 1, 1, 1, 1, 1, 1, 1, 1, 1, 1, 1, 1, 1, 1, 1, 1]","[808, 1618, 548, 709, 493, 662, 645, 621, 646, 592, 615, 555, 659, 609, 700, 688, 647, 622, 1172, 781, 898, 656, 584, 1054, 865, 606, 521]","['x-x-x', 'motivated', 'hour', 'whom', 'al', 'queen', 'jack', 'agree', 'glad', 'app', 'airs', 'games', 'pre', 'sir', 'trolls', 'hates', 'hear', 'lord', 'rite', 'holy', 'happy', 'page', 'cent', 'wrote', 'dawn', 'god', 'knew.']",0.0-16.0-0.1,2,"[1, 0, 1, 1, 0, 0, 1, 1, 1, 0, 0, 0, 1, 0, 0, 0, 1, 1, 0, 1, 1, 0, 1, 1, 1, 0, 0]",,"[808, 1618, 548, 709, 493, 662, 645, 621, 646, 592, 615, 555, 659, 609, 700, 688, 647, 622, 1172, 781, 898, 656, 584, 1054, 865, 606, 521]",On examining the car he found that there was a tyre which had a faulty valve and a fuel line which had a small hole in it.,,448598,29,maze,1-context,"['On', 'examining', 'the', 'car', 'he', 'found', 'that', 'there', 'was', 'a', 'tyre', 'which', 'had', 'a', 'faulty', 'valve', 'and', 'a', 'fuel', 'line', 'which', 'had', 'a', 'small', 'hole', 'in', 'it.']",
1044,1,"[1, 1, 1, 1, 1, 0, 1, 1, 1, 1, 1, 1, 1, 1, 1]","[763, 1329, 1594, 685, 538, 1119, 666, 661, 728, 553, 718, 748, 561, 429, 556]","['x-x-x', 'marketed', 'seconds', 'miss', 'oaks', 'sick', 'died', 'preach', 'uphold', 'eat', 'fund', 'hate', 'hall', 'hear', 'born.']",0.0-16.0-0.2,2,"[0, 1, 0, 1, 0, 1, 0, 0, 1, 0, 0, 0, 1, 0, 0]",,"[763, 1329, 1594, 685, 538, 618, 666, 661, 728, 553, 718, 748, 561, 429, 556]",The mechanic changed the tyre with the faulty valve but it took a long time.,,460274,30,maze,NP,"['The', 'mechanic', 'changed', 'the', 'tyre', 'with', 'the', 'faulty', 'valve', 'but', 'it', 'took', 'a', 'long', 'time.']",
1044,1,,,,0.0-17.0,,,,,,,461286,31,html-button-response,,,
1044,1,"[1, 1, 1, 1, 1, 1, 1, 1, 1, 1, 1, 1, 1, 1, 1, 1, 1, 1, 1, 1, 1, 1, 1, 1, 1]","[751, 1490, 777, 1004, 590, 571, 590, 458, 747, 480, 843, 786, 682, 584, 994, 624, 605, 458, 1046, 731, 690, 546, 497, 622, 480]","['x-x-x', 'capacities', 'cool', 'gold', 'text', 'sun', 'each', 'fat', 'does', 'feel', 'rate', 'overthrew.', 'x-x-x', 'move', 'ring', 'park', 'east', 'link', 'met', 'substances', 'reached', 'feet', 'starship', 'wear', 'calls.']",0.0-18.0-0.0,21,"[1, 0, 1, 1, 0, 0, 0, 0, 1, 0, 1, 0, 0, 0, 1, 1, 0, 0, 1, 0, 0, 0, 0, 1, 0]",,"[751, 1490, 777, 1004, 590, 571, 590, 458, 747, 480, 843, 786, 682, 584, 994, 624, 605, 458, 1046, 731, 690, 546, 497, 622, 480]",A demolition man was on his way to work in his bulldozer. He’d been told to go to a particular address to demolish a house.,,478949,32,maze,setup,"['A', 'demolition', 'man', 'was', 'on', 'his', 'way', 'to', 'work', 'in', 'his', 'bulldozer.', 'He’d', 'been', 'told', 'to', 'go', 'to', 'a', 'particular', 'address', 'to', 'demolish', 'a', 'house.']",
1044,1,"[1, 1, 1, 1, 1, 1, 1, 1, 1, 1, 1, 1, 1, 1, 1, 1, 1, 1, 1, 1, 1, 1, 1]","[719, 474, 701, 548, 487, 576, 701, 771, 556, 473, 872, 1131, 956, 603, 667, 729, 669, 601, 489, 704, 717, 1311, 1876]","['x-x-x', 'bed', 'uses', 'follows', 'wear', 'brown', 'walk', 'comes', 'super', 'push', 'step', 'comets', 'deployed', 'me', 'goes', 'anyway', 'pain', 'fear', 'except', 'trouble', 'data', 'ford', 'encoding.']",0.0-18.0-0.1,21,"[1, 0, 1, 0, 0, 0, 0, 0, 0, 0, 1, 1, 0, 0, 1, 0, 0, 1, 0, 0, 1, 1, 0]",,"[719, 474, 701, 548, 487, 576, 701, 771, 556, 473, 872, 1131, 956, 603, 667, 729, 669, 601, 489, 704, 717, 1311, 1876]",Once at the address he found a house which had an ornate fountain in its garden and a church covered in fine carvings.,,496295,33,maze,1-context,"['Once', 'at', 'the', 'address', 'he', 'found', 'a', 'house', 'which', 'had', 'an', 'ornate', 'fountain', 'in', 'its', 'garden', 'and', 'a', 'church', 'covered', 'in', 'fine', 'carvings.']",
1044,1,"[1, 1, 1, 1, 1, 1, 0, 0, 1, 1, 1, 1, 0, 1]","[617, 746, 704, 664, 533, 573, 1068, 2431, 672, 826, 780, 651, 1227, 807]","['x-x-x', 'yet', 'insulation', 'draw', 'maybe', 'pick', 'via', 'marathons', 'gay', 'deal', 'annual', 'fat', 'heard', 'our.']",0.0-18.0-0.2,21,"[1, 1, 0, 1, 0, 0, 1, 1, 1, 1, 1, 1, 0, 1]",,"[617, 746, 704, 664, 533, 573, 543, 1159, 672, 826, 780, 651, 686, 807]",The man demolished the house with the fountain but it wasn't the right one.,,508631,34,maze,NP,"['The', 'man', 'demolished', 'the', 'house', 'with', 'the', 'fountain', 'but', 'it', ""wasn't"", 'the', 'right', 'one.']",
1044,1,,,,0.0-19.0,,,,,,,509639,35,html-button-response,,,
1044,1,"[1, 0, 1, 1, 1, 1, 1, 1, 1, 1, 1, 1, 1, 1, 1, 1, 1, 1]","[7537, 3760, 656, 1023, 865, 591, 791, 967, 761, 887, 712, 513, 725, 757, 562, 651, 704, 813]","['x-x-x', 'brothels', 'lots', 'deserve', 'apply', 'grow', 'option', 'nonsense', 'kill', 'shall', 'kings.', 'x-x-x', 'lot', 'memories', 'am', 'unless', 'want', 'instances.']",0.0-20.0-0.0,13,"[0, 1, 1, 1, 1, 0, 1, 1, 1, 1, 0, 0, 1, 0, 0, 0, 0, 1]",,"[7537, 2130, 656, 1023, 865, 591, 791, 967, 761, 887, 712, 513, 725, 757, 562, 651, 704, 813]",A skinhead was walking along a street carrying a large knife. He was planning to attack a policeman.,,532935,36,maze,setup,"['A', 'skinhead', 'was', 'walking', 'along', 'a', 'street', 'carrying', 'a', 'large', 'knife.', 'He', 'was', 'planning', 'to', 'attack', 'a', 'policeman.']",
1044,1,"[1, 1, 1, 1, 1, 1, 1, 1, 1, 1, 1, 1, 1, 1, 1, 1, 1, 1]","[614, 727, 960, 427, 821, 504, 663, 721, 820, 1046, 573, 537, 1023, 805, 564, 685, 803, 801]","['x-x-x', 'girlfriend', 'wild', 'feel', 'terminals', 'holy', 'lake', 'page', 'users', 'jays', 'kids', 'meet', 'born', 'buy', 'deal', 'enrolment', 'nations', 'observable.']",0.0-20.0-0.1,13,"[0, 1, 0, 0, 1, 0, 0, 1, 1, 1, 1, 1, 1, 1, 0, 0, 1, 0]",,"[614, 727, 960, 427, 821, 504, 663, 721, 820, 1046, 573, 537, 1023, 805, 564, 685, 803, 801]",He eventually saw a policeman who had a large scar on his face and a policeman wearing spectacles.,,546047,37,maze,2-context,"['He', 'eventually', 'saw', 'a', 'policeman', 'who', 'had', 'a', 'large', 'scar', 'on', 'his', 'face', 'and', 'a', 'policeman', 'wearing', 'spectacles.']",
1044,1,"[1, 1, 0, 1, 1, 1, 1, 1, 1, 1, 1, 1, 0]","[1295, 830, 1856, 1092, 712, 542, 755, 765, 583, 1010, 842, 1005, 2390]","['x-x-x', 'imitated', 'grateful', 'provider', 'want', 'comprises', 'date', 'grow', 'owns', 'lots', 'mean', 'sake', 'sold.']",0.0-20.0-0.2,13,"[0, 0, 1, 1, 0, 0, 0, 1, 0, 1, 1, 1, 0]",,"[1295, 830, 743, 1092, 712, 542, 755, 765, 583, 1010, 842, 1005, 514]",The skinhead suddenly attacked the policeman with the knife and then ran off.,,559770,38,maze,VP,"['The', 'skinhead', 'suddenly', 'attacked', 'the', 'policeman', 'with', 'the', 'knife', 'and', 'then', 'ran', 'off.']",
1044,1,,,,0.0-21.0,,,,,,,560779,39,html-button-response,,,
1044,1,"[1, 1, 1, 1, 1, 1, 1, 1, 1, 1, 1, 1, 1, 1, 1, 1, 1, 1, 1, 1, 1]","[1078, 2542, 839, 758, 671, 613, 820, 546, 699, 768, 582, 1063, 1338, 604, 644, 804, 428, 785, 496, 626, 629]","['x-x-x', 'democrats', 'loss', 'dollars', 'idea', 'fat', 'rays', 'wild', 'doubt', 'rule', 'rise', 'trends', 'tragically.', 'x-x-x', 'sick', 'ride', 'base', 'inch', 'gets', 'seen', 'expect.']",0.0-22.0-0.0,24,"[0, 0, 1, 1, 0, 0, 1, 1, 0, 0, 0, 0, 1, 1, 0, 1, 0, 1, 0, 0, 0]",,"[1078, 2542, 839, 758, 671, 613, 820, 546, 699, 768, 582, 1063, 1338, 604, 644, 804, 428, 785, 496, 626, 629]",A secretary was sitting at her desk on which was a manual typewriter. She was told to type up a report.,,578127,40,maze,setup,"['A', 'secretary', 'was', 'sitting', 'at', 'her', 'desk', 'on', 'which', 'was', 'a', 'manual', 'typewriter.', 'She', 'was', 'told', 'to', 'type', 'up', 'a', 'report.']",
1044,1,"[1, 0, 1, 1, 1, 1, 1, 1, 1, 1, 1, 1, 1, 1, 1]","[669, 930, 911, 843, 608, 1216, 693, 1231, 607, 670, 881, 686, 534, 820, 635]","['x-x-x', 'boy', 'brooks', 'lie', 'beyond', 'eastern', 'saw', 'persists', 'foot', 'sick', 'expect', 'nations', 'feel', 'seriously', 'quietly.']",0.0-22.0-0.1,24,"[1, 1, 0, 1, 0, 1, 0, 1, 1, 0, 1, 0, 1, 0, 1]",,"[669, 429, 911, 843, 608, 1216, 693, 1231, 607, 670, 881, 686, 534, 820, 635]",She was handed a report covered in diagrams and a report written in different colours.,,590087,41,maze,2-context,"['She', 'was', 'handed', 'a', 'report', 'covered', 'in', 'diagrams', 'and', 'a', 'report', 'written', 'in', 'different', 'colours.']",
1044,1,"[1, 1, 1, 1, 1, 1, 1, 1, 1, 1, 1, 1, 1, 1]","[596, 812, 930, 497, 658, 869, 624, 629, 888, 646, 644, 973, 553, 1070]","['x-x-x', 'recommend', 'spicy', 'feet', 'ring', 'happen', 'wear', 'goes', 'worshipped', 'sea', 'east', 'pain', 'may', 'trans.']",0.0-22.0-0.2,24,"[0, 0, 1, 1, 1, 1, 0, 0, 0, 1, 1, 1, 0, 0]",,"[596, 812, 930, 497, 658, 869, 624, 629, 888, 646, 644, 973, 553, 1070]",The secretary typed up the report with the diagrams and then went to lunch.,,600492,42,maze,NP,"['The', 'secretary', 'typed', 'up', 'the', 'report', 'with', 'the', 'diagrams', 'and', 'then', 'went', 'to', 'lunch.']",
1044,1,,,,0.0-23.0,,,,,,,601499,43,html-button-response,,,
1044,1,"[1, 1, 1, 1, 1, 1, 1, 1, 1, 1, 1, 1, 1, 1, 1, 1, 1, 1]","[964, 6567, 847, 933, 1122, 714, 547, 544, 648, 447, 571, 740, 543, 713, 888, 589, 763, 504]","['x-x-x', 'prices', 'eyes', 'vitamins', 'lack', 'shut', 'updates', 'yes', 'flows', 'tasks.', 'x-x-x', 'stupid', 'cup', 'feet', 'met', 'exists', 'none', 'settle.']",0.0-24.0-0.0,16,"[1, 1, 1, 1, 1, 0, 0, 0, 1, 0, 0, 1, 1, 1, 1, 0, 1, 0]",,"[964, 6567, 847, 933, 1122, 714, 547, 544, 648, 447, 571, 740, 543, 713, 888, 589, 763, 504]",A little girl borrowed from the kitchen a bread knife. She wanted to cut an orange into pieces.,,620156,44,maze,setup,"['A', 'little', 'girl', 'borrowed', 'from', 'the', 'kitchen', 'a', 'bread', 'knife.', 'She', 'wanted', 'to', 'cut', 'an', 'orange', 'into', 'pieces.']",
1044,1,"[1, 1, 1, 1, 1, 1, 1, 1, 1, 1, 1, 1, 1, 1, 1, 1, 1, 1, 1, 0, 1, 1]","[562, 714, 825, 693, 873, 727, 1000, 932, 691, 661, 562, 743, 813, 1758, 768, 630, 966, 732, 680, 1224, 1345, 1494]","['x-x-x', 'worse', 'shut', 'guy', 'hates', 'fate', 'goal', 'senate', 'plans', 'mind', 'job', 'gets', 'argue', 'lire', 'cars', 'wait', 'renovate', 'goals', 'shop', 'plan', 'harm', 'saws.']",0.0-24.0-0.1,16,"[0, 1, 0, 0, 1, 1, 0, 1, 0, 1, 0, 0, 0, 0, 1, 0, 1, 0, 0, 1, 1, 1]",,"[562, 714, 825, 693, 873, 727, 1000, 932, 691, 661, 562, 743, 813, 1758, 768, 630, 966, 732, 680, 560, 1345, 1494]",She found in the fruit bowl an orange which had a very thick rind and a tangerine which had a thin rind.,,639574,45,maze,1-context,"['She', 'found', 'in', 'the', 'fruit', 'bowl', 'an', 'orange', 'which', 'had', 'a', 'very', 'thick', 'rind', 'and', 'a', 'tangerine', 'which', 'had', 'a', 'thin', 'rind.']",
1044,1,"[1, 1, 1, 0, 1, 1, 1, 1, 1, 1, 1, 1, 1, 1, 1, 1]","[816, 653, 450, 1277, 790, 617, 752, 549, 632, 530, 676, 625, 553, 1625, 852, 769]","['x-x-x', 'enough', 'shut', 'trump', 'hall', 'upon', 'trip', 'expect', 'hope', 'than', 'acres', 'lien', 'self', 'us', 'till', 'follows.']",0.0-24.0-0.2,16,"[1, 0, 0, 1, 1, 1, 1, 0, 0, 0, 0, 0, 1, 1, 0, 0]",,"[816, 653, 450, 626, 790, 617, 752, 549, 632, 530, 676, 625, 553, 1625, 852, 769]",The little girl tried to cut the orange with the bread knife but to no success.,,651768,46,maze,VP,"['The', 'little', 'girl', 'tried', 'to', 'cut', 'the', 'orange', 'with', 'the', 'bread', 'knife', 'but', 'to', 'no', 'success.']",
1044,1,,,,0.0-25.0,,,,,,,652771,47,html-button-response,,,
1044,1,"[1, 1, 1, 1, 1, 0, 1, 1, 1, 1, 1, 1, 1, 1, 1]","[1761, 783, 802, 773, 832, 1609, 1012, 957, 648, 730, 858, 895, 979, 565, 708]","['x-x-x', 'raiders', 'ones', 'terminate', 'same', 'rioted', 'abuses.', 'x-x-x', 'guy', 'worry', 'sun', 'loud', 'lie', 'non', 'findings.']",0.0-26.0-0.0,17,"[0, 1, 0, 0, 1, 0, 1, 0, 0, 1, 1, 0, 1, 0, 0]",,"[1761, 783, 802, 773, 832, 1013, 1012, 957, 648, 730, 858, 895, 979, 565, 708]",A chemist was adjusting a bunsen burner. He was about to heat up a solution.,,666697,48,maze,setup,"['A', 'chemist', 'was', 'adjusting', 'a', 'bunsen', 'burner.', 'He', 'was', 'about', 'to', 'heat', 'up', 'a', 'solution.']",
1044,1,"[1, 1, 0, 1, 1, 0, 1, 1, 1, 1, 1, 1, 1, 1, 1, 1, 1, 1, 1]","[891, 805, 2492, 764, 758, 1317, 857, 768, 1102, 890, 1103, 667, 535, 813, 616, 921, 925, 1447, 817]","['x-x-x', 'ring', 'ought', 'worse', 'cat', 'die', 'diseases', 'lives', 'girl', 'kiss', 'robotics', 'sea', 'hurt', 'gay', 'army', 'granted', 'physicians', 'ride', 'pier.']",0.0-26.0-0.1,17,"[1, 1, 1, 1, 1, 1, 0, 0, 0, 0, 1, 0, 0, 1, 0, 1, 0, 1, 1]",,"[891, 805, 1195, 764, 758, 813, 857, 768, 1102, 890, 1103, 667, 535, 813, 616, 921, 925, 1447, 817]",On his bench there was a solution which had blue crystals in it and a solution containing red dye.,,685256,49,maze,2-context,"['On', 'his', 'bench', 'there', 'was', 'a', 'solution', 'which', 'had', 'blue', 'crystals', 'in', 'it', 'and', 'a', 'solution', 'containing', 'red', 'dye.']",
1044,1,"[1, 1, 1, 1, 1, 1, 1, 1, 1, 1, 1, 1, 1, 1]","[681, 650, 843, 507, 705, 702, 952, 961, 685, 640, 714, 630, 678, 531]","['x-x-x', 'expands', 'brakes', 'gain', 'becoming', 'fear', 'park', 'haunts', 'weddings', 'fun', 'ride', 'mum', 'nice', 'mark.']",0.0-26.0-0.2,17,"[1, 0, 0, 0, 1, 1, 1, 1, 0, 1, 0, 1, 0, 1]",,"[681, 650, 843, 507, 705, 702, 952, 961, 685, 640, 714, 630, 678, 531]",The chemist heated the solution with the bunsen burner but the gas went out.,,695143,50,maze,VP,"['The', 'chemist', 'heated', 'the', 'solution', 'with', 'the', 'bunsen', 'burner', 'but', 'the', 'gas', 'went', 'out.']",
1044,1,,,,0.0-27.0,,,,,,,696159,51,html-button-response,,,
1044,1,"[1, 1, 1, 1, 1, 1, 1, 1, 1, 1, 1, 1, 1, 1, 1, 1, 1]","[809, 2459, 617, 818, 690, 451, 1076, 756, 573, 759, 778, 763, 856, 557, 658, 698, 969]","['x-x-x', 'newscasts', 'cool', 'anymore', 'realize', 'mark', 'belong', 'birthday', 'tell', 'upon', 'evoke.', 'x-x-x', 'precious', 'cup', 'dies', 'door', 'aids.']",0.0-28.0-0.0,20,"[0, 0, 0, 1, 0, 0, 1, 1, 0, 0, 0, 1, 1, 0, 1, 0, 0]",,"[809, 2459, 617, 818, 690, 451, 1076, 756, 573, 759, 778, 763, 856, 557, 658, 698, 969]",A tribesman was running through the forest carrying a long spear. He intended to kill a lion.,,710461,52,maze,setup,"['A', 'tribesman', 'was', 'running', 'through', 'the', 'forest', 'carrying', 'a', 'long', 'spear.', 'He', 'intended', 'to', 'kill', 'a', 'lion.']",
1044,1,"[1, 1, 1, 1, 1, 1, 1, 1, 1, 1, 1, 1, 1, 1, 1, 0, 1, 1, 1, 1, 1, 1]","[750, 679, 630, 616, 1237, 1144, 1202, 502, 533, 556, 573, 1313, 1051, 581, 688, 1089, 602, 558, 512, 843, 883, 1191]","['x-x-x', 'murdered', 'rise', 'done', 'outright', 'fans', 'union', 'add', 'vary', 'costs', 'fun', 'note', 'inter', 'argue', 'wife', 'win', 'anime', 'users', 'step', 'percent', 'showcase', 'guru.']",0.0-28.0-0.1,20,"[1, 0, 1, 0, 0, 0, 0, 1, 0, 0, 0, 0, 1, 0, 1, 1, 0, 1, 0, 1, 1, 1]",,"[750, 679, 630, 616, 1237, 1144, 1202, 502, 533, 556, 573, 1313, 1051, 581, 688, 562, 602, 558, 512, 843, 883, 1191]",On arriving at a clearing he found a lion which had very sharp teeth and a lion which had strange coloured paws.,,728210,53,maze,2-context,"['On', 'arriving', 'at', 'a', 'clearing', 'he', 'found', 'a', 'lion', 'which', 'had', 'very', 'sharp', 'teeth', 'and', 'a', 'lion', 'which', 'had', 'strange', 'coloured', 'paws.']",
1044,1,"[1, 1, 1, 1, 1, 1, 1, 1, 1, 0, 1, 1, 1, 1]","[635, 903, 647, 575, 696, 602, 686, 758, 800, 1210, 806, 515, 690, 925]","['x-x-x', 'loanwords', 'stupid', 'door', 'rely', 'step', 'does', 'shall', 'cyber', 'ice', 'finance', 'add', 'term', 'tell.']",0.0-28.0-0.2,20,"[0, 1, 1, 1, 0, 1, 0, 1, 1, 1, 0, 0, 0, 1]",,"[635, 903, 647, 575, 696, 602, 686, 758, 800, 613, 806, 515, 690, 925]",The tribesman killed the lion with the long spear and carried it back home.,,738684,54,maze,VP,"['The', 'tribesman', 'killed', 'the', 'lion', 'with', 'the', 'long', 'spear', 'and', 'carried', 'it', 'back', 'home.']",
1044,1,,,,0.0-29.0,,,,,,,739698,55,html-button-response,,,
1044,1,"[1, 1, 0, 1, 1, 1, 1, 1, 1, 1, 1, 1, 1, 1, 1, 1, 1, 1, 1, 1, 1, 1, 1]","[899, 1278, 2703, 650, 524, 745, 596, 638, 791, 732, 1158, 564, 1406, 687, 657, 867, 763, 583, 736, 466, 821, 746, 686]","['x-x-x', 'batters', 'join', 'videos', 'goal', 'types', 'rose', 'died', 'terms', 'male', 'firm', 'size', 'writes', 'suck', 'wind', 'skin', 'thus.', 'x-x-x', 'happen', 'foot', 'upon', 'lie', 'tend.']",0.0-30.0-0.0,25,"[0, 1, 1, 1, 1, 1, 0, 0, 1, 0, 0, 1, 0, 0, 0, 0, 1, 0, 0, 0, 1, 1, 0]",,"[899, 1278, 861, 650, 524, 745, 596, 638, 791, 732, 1158, 564, 1406, 687, 657, 867, 763, 583, 736, 466, 821, 746, 686]",A burglar was trying to break into a house and had a credit card in his hand. He wanted to open a door.,,759411,56,maze,setup,"['A', 'burglar', 'was', 'trying', 'to', 'break', 'into', 'a', 'house', 'and', 'had', 'a', 'credit', 'card', 'in', 'his', 'hand.', 'He', 'wanted', 'to', 'open', 'a', 'door.']",
1044,1,"[1, 1, 1, 1, 1, 1, 1, 1, 1, 1, 1, 1, 1, 1, 1, 1, 1]","[663, 785, 525, 715, 932, 637, 622, 735, 532, 771, 926, 712, 759, 969, 531, 753, 642]","['x-x-x', 'queen', 'draw', 'onto', 'stars', 'fat', 'dog', 'assert', 'tons', 'poor', 'boys', 'movies', 'weird', 'gay', 'race', 'propose', 'gifts.']",0.0-30.0-0.1,25,"[1, 0, 1, 1, 1, 0, 1, 0, 1, 1, 0, 1, 1, 0, 1, 0, 1]",,"[663, 785, 525, 715, 932, 637, 622, 735, 532, 771, 926, 712, 759, 969, 531, 753, 642]",He found a door which had a faulty lock and a door which had a cracked frame.,,771634,57,maze,2-context,"['He', 'found', 'a', 'door', 'which', 'had', 'a', 'faulty', 'lock', 'and', 'a', 'door', 'which', 'had', 'a', 'cracked', 'frame.']",
1044,1,"[1, 1, 1, 1, 1, 1, 1, 1, 1, 1, 1, 1, 1]","[603, 969, 803, 592, 645, 739, 535, 849, 621, 580, 613, 778, 683]","['x-x-x', 'expands', 'silver', 'drop', 'thus', 'male', 'site', 'relies', 'tend', 'sea', 'affairs', 'honesty', 'degree.']",0.0-30.0-0.2,25,"[0, 0, 1, 1, 0, 0, 0, 1, 0, 0, 1, 0, 0]",,"[603, 969, 803, 592, 645, 739, 535, 849, 621, 580, 613, 778, 683]",The burglar opened the door with the faulty lock and quickly slipped inside.,,780659,58,maze,NP,"['The', 'burglar', 'opened', 'the', 'door', 'with', 'the', 'faulty', 'lock', 'and', 'quickly', 'slipped', 'inside.']",
1044,1,,,,0.0-31.0,,,,,,,781669,59,html-button-response,,,
1044,1,"[1, 1, 1, 1, 1, 1, 1, 1, 1, 1, 1, 0, 1, 1, 1, 1, 1, 1, 1, 1, 1]","[861, 6400, 1535, 762, 690, 605, 822, 583, 972, 598, 606, 2149, 650, 599, 1105, 882, 866, 864, 707, 649, 611]","['x-x-x', 'videos', 'rid', 'loss', 'reasons', 'plan', 'done', 'assets', 'thrones', 'lost', 'maps', 'truth.', 'x-x-x', 'seat', 'temper', 'spot', 'cape', 'republic', 'doors', 'site', 'voices.']",0.0-32.0-0.0,28,"[0, 1, 0, 1, 1, 0, 0, 0, 1, 1, 1, 1, 0, 1, 0, 0, 0, 1, 0, 1, 1]",,"[861, 6400, 1535, 762, 690, 605, 822, 583, 972, 598, 606, 846, 650, 599, 1105, 882, 866, 864, 707, 649, 611]",A little boy was playing in a garden kicking a ball about. He was warned that he’d probably break a window.,,805212,60,maze,setup,"['A', 'little', 'boy', 'was', 'playing', 'in', 'a', 'garden', 'kicking', 'a', 'ball', 'about.', 'He', 'was', 'warned', 'that', 'he’d', 'probably', 'break', 'a', 'window.']",
1044,1,"[1, 1, 1, 1, 1, 1, 1, 1, 1, 1, 1, 1, 1, 1, 1, 1, 1, 1, 1]","[578, 534, 457, 987, 580, 514, 921, 866, 637, 707, 590, 568, 732, 581, 756, 630, 807, 785, 713]","['x-x-x', 'huge', 'cast', 'slow', 'pull', 'phones', 'lives', 'ice', 'job', 'firms', 'cars', 'find', 'sex', 'law', 'behalf', 'wife', 'notice', 'song', 'pay.']",0.0-32.0-0.1,28,"[1, 0, 0, 1, 1, 1, 1, 0, 1, 0, 1, 1, 0, 0, 1, 0, 1, 1, 1]",,"[578, 534, 457, 987, 580, 514, 921, 866, 637, 707, 590, 568, 732, 581, 756, 630, 807, 785, 713]",Close to him was a window which had a crack in it and a window that looked very old.,,818172,61,maze,2-context,"['Close', 'to', 'him', 'was', 'a', 'window', 'which', 'had', 'a', 'crack', 'in', 'it', 'and', 'a', 'window', 'that', 'looked', 'very', 'old.']",
1044,1,"[1, 1, 1, 1, 1, 1, 1, 1, 1, 1, 1, 1, 1, 1]","[574, 477, 756, 1295, 570, 472, 780, 739, 660, 884, 719, 849, 647, 576]","['x-x-x', 'gone', 'huge', 'significance', 'miles', 'did', 'behalf', 'join', 'role', 'occur', 'sex', 'wars', 'size', 'decade.']",0.0-32.0-0.2,28,"[0, 0, 1, 1, 0, 0, 0, 1, 1, 1, 1, 0, 1, 1]",,"[574, 477, 756, 1295, 570, 472, 780, 739, 660, 884, 719, 849, 647, 576]",The boy did accidentally break the window with the crack and ran home crying.,,828188,62,maze,NP,"['The', 'boy', 'did', 'accidentally', 'break', 'the', 'window', 'with', 'the', 'crack', 'and', 'ran', 'home', 'crying.']",
1044,1,,,,0.0-33.0,,,,,,,829191,63,html-button-response,,,
1044,1,"[1, 1, 1, 0, 1, 1, 1, 1, 1, 0, 1, 1, 1, 1, 0, 1, 1, 1, 1]","[738, 1094, 608, 1705, 1162, 650, 693, 680, 726, 1624, 699, 839, 584, 1353, 1387, 591, 848, 621, 878]","['x-x-x', 'reactions', 'wind', 'billion', 'ice', 'went', 'causes', 'require', 'came', 'led', 'them', 'grandchild.', 'x-x-x', 'body', 'coast', 'heat', 'brain', 'foot', 'aware.']",0.0-34.0-0.0,31,"[1, 0, 1, 1, 1, 0, 0, 0, 1, 0, 0, 1, 0, 1, 1, 0, 0, 1, 0]",,"[738, 1094, 608, 540, 1162, 650, 693, 680, 726, 996, 699, 839, 584, 1353, 810, 591, 848, 621, 878]",A detective was sitting at a window holding a set of binoculars. He’d been asked to watch a woman.,,846716,64,maze,setup,"['A', 'detective', 'was', 'sitting', 'at', 'a', 'window', 'holding', 'a', 'set', 'of', 'binoculars.', 'He’d', 'been', 'asked', 'to', 'watch', 'a', 'woman.']",
1044,1,"[1, 1, 1, 1, 1, 1, 1, 1, 1, 1, 1, 1, 1, 1, 0, 1, 1, 1, 1, 1]","[681, 622, 876, 629, 667, 699, 524, 761, 523, 551, 639, 884, 616, 1465, 1524, 979, 695, 986, 528, 931]","['x-x-x', 'kept', 'gave', 'slow', 'true', 'million', 'park', 'march', 'bus', 'cell', 'apart', 'factors', 'site', 'insiders', 'wind', 'cost', 'costs', 'airport', 'year', 'honours.']",0.0-34.0-0.1,31,"[0, 1, 1, 1, 0, 1, 0, 0, 0, 0, 1, 1, 1, 0, 1, 0, 1, 0, 1, 1]",,"[681, 622, 876, 629, 667, 699, 524, 761, 523, 551, 639, 884, 616, 1465, 614, 979, 695, 986, 528, 931]",In the room he was looking into there was a woman holding a revolver and a man holding a grenade.,,862517,65,maze,1-context,"['In', 'the', 'room', 'he', 'was', 'looking', 'into', 'there', 'was', 'a', 'woman', 'holding', 'a', 'revolver', 'and', 'a', 'man', 'holding', 'a', 'grenade.']",
1044,1,"[1, 1, 1, 1, 1, 1, 1, 1, 1, 1, 1, 1, 1, 1]","[512, 681, 747, 554, 649, 618, 598, 1451, 681, 742, 1248, 614, 1061, 491]","['x-x-x', 'preparing', 'poverty', 'heat', 'meant', 'wood', 'year', 'reelection', 'poor', 'firm', 'size', 'cost', 'wants', 'land.']",0.0-34.0-0.2,31,"[1, 0, 0, 1, 0, 1, 0, 0, 1, 1, 0, 0, 0, 0]",,"[512, 681, 747, 554, 649, 618, 598, 1451, 681, 742, 1248, 614, 1061, 491]",The detective watched the woman with the binoculars and then made a phone call.,,873177,66,maze,VP,"['The', 'detective', 'watched', 'the', 'woman', 'with', 'the', 'binoculars', 'and', 'then', 'made', 'a', 'phone', 'call.']",
1044,1,,,,0.0-35.0,,,,,,,874180,67,html-button-response,,,
1044,1,,,,0.0-36.0,,,"{'other': 'i liked the experiment', 'errors': 'no', 'length': 'the length was okay', 'strange': 'no', 'understand': 'everything was clear', 'what-about': 'testing level of attention'}",50951,,,925164,68,survey-text,,,
1044,1,,,,0.0-37.0,,,0,2078,,<h2>Many thanks for participating!</h2><p>We are interested in how people integrate the words they read into the context of the sentence so far.<h1>Press continue to be redirected to Prolific. </h1>,927247,69,html-button-response,,,
989,1,,,,0.0-0.0,,,0,8993,," <center><img width=""300px"" src=""assets/stanford.png"" /></center><div id=""legal""></br>By answering the following questions, you are participating in a study being performed by cognitive scientists in the Stanford Department of Psychology. If you have questions about this research, please contact us at  <a href=""mailto://languagecoglab@gmail.com.""> languagecoglab@gmail.com</a>.You must be at least 18 years old to participate. Your participation in this research is voluntary. You may decline to answer any or all of the following questions. You may decline further participation, at any time, without adverse consequences. Your anonymity is assured; the researchers who have requested your participation will not receive any personal information about you. </div></br>",8997,0,html-button-response,,,
989,1,,,,0.0-1.0,,,0,24230,,"<h3>Please read these instructions carefully!</h3> </br><p>For this experiment, please place your <b>left index finger on the 'e' key</b> and your <b>right index finger on the 'i' key</b>.</p><p> You will read sentences word by word. However, you will have to guess which word comes next. On each screen you will see two options: one will be the next word in the sentence, and one will not. </p><p><b>Select the word that continues the sentence by pressing 'e' (left-hand) for the word on the left or pressing 'i' (right-hand) for the word on the right.</b></p><p>Select the best word as quickly as you can, but without making too many errors. </p><div><p>Click ""Continue"" to try this on a practice sentence.</p></div>",33229,1,html-button-response,,,
989,1,"[1, 1, 1, 1, 1, 1, 1, 1, 1, 1, 1, 1, 1, 1]","[5209, 1163, 956, 1055, 1056, 923, 839, 779, 940, 1477, 681, 724, 654, 656]","['x-x-x', 'whom', 'knew', 'appeared', 'emotions', 'know', 'dad', 'lake', 'edition', 'jack', 'fans', 'fund', 'grow', 'died.']",0.0-2.0,,"[0, 0, 1, 0, 1, 0, 1, 1, 1, 1, 0, 1, 1, 0]",,"[5209, 1163, 956, 1055, 1056, 923, 839, 779, 940, 1477, 681, 724, 654, 656]",,,50355,2,maze,,"['This', 'is', 'a', 'practice', 'sentence', 'that', 'you', 'are', 'reading', 'one', 'word', 'at', 'a', 'time.']",
989,1,,,,0.0-3.0,,,0,6548,,"<h3>Please read these instructions carefully!</h3> </br><p>Great job! Now you are ready for the main experiment.</p><p> You will now read 16 short stories in the same word-by-word way.</p><div><p>Click ""Continue"" to start the experiment.</p>",56904,3,html-button-response,,,
989,1,"[1, 1, 1, 1, 1, 1, 1, 1, 1, 1, 1, 1, 1, 1, 1, 1, 1, 1, 1, 1, 1]","[1898, 1104, 770, 968, 820, 699, 897, 651, 614, 986, 1179, 673, 869, 855, 811, 863, 681, 955, 810, 700, 982]","['x-x-x', 'fringes', 'ones', 'nations', 'sell', 'sold', 'frank', 'pain', 'lady', 'info', 'channels', 'yes', 'rates', 'vain.', 'x-x-x', 'sun', 'plus', 'olive', 'term', 'read', 'sake.']",0.0-4.0-0.0,15,"[1, 0, 0, 1, 0, 0, 0, 1, 0, 1, 1, 0, 0, 0, 1, 1, 0, 1, 0, 1, 0]",,"[1898, 1104, 770, 968, 820, 699, 897, 651, 614, 986, 1179, 673, 869, 855, 811, 863, 681, 955, 810, 700, 982]",A fireman was running to the scene of a fire carrying a heavy axe. He had to smash down a door.,,75701,4,maze,setup,"['A', 'fireman', 'was', 'running', 'to', 'the', 'scene', 'of', 'a', 'fire', 'carrying', 'a', 'heavy', 'axe.', 'He', 'had', 'to', 'smash', 'down', 'a', 'door.']",
989,1,"[1, 1, 1, 1, 1, 1, 1, 1, 1, 1, 1, 1, 1, 1, 1, 1, 1, 1, 1, 1, 1, 1, 1, 1, 1, 1]","[783, 989, 776, 582, 571, 671, 750, 637, 781, 1140, 975, 697, 875, 873, 930, 732, 1429, 802, 753, 695, 647, 869, 845, 735, 824, 768]","['x-x-x', 'lie', 'till', 'mark', 'week', 'ought', 'non', 'push', 'thus', 'ways', 'smart', 'send', 'ages', 'teams', 'mind', 'card', 'does', 'cites', 'lied', 'drug', 'tax', 'prices', 'rates', 'cash', 'cleric', 'sing.']",0.0-4.0-0.1,15,"[0, 0, 0, 0, 0, 1, 0, 0, 1, 0, 1, 0, 1, 1, 1, 0, 0, 1, 1, 0, 0, 0, 0, 1, 0, 1]",,"[783, 989, 776, 582, 571, 671, 750, 637, 781, 1140, 975, 697, 875, 873, 930, 732, 1429, 802, 753, 695, 647, 869, 845, 735, 824, 768]",When he got to the scene of the fire he found a door which had a very rusty lock and a door which was nailed shut.,,96840,5,maze,2-context,"['When', 'he', 'got', 'to', 'the', 'scene', 'of', 'the', 'fire', 'he', 'found', 'a', 'door', 'which', 'had', 'a', 'very', 'rusty', 'lock', 'and', 'a', 'door', 'which', 'was', 'nailed', 'shut.']",
989,1,"[1, 1, 1, 1, 1, 1, 1, 1, 1, 1, 1, 1, 1, 1]","[803, 742, 797, 893, 581, 706, 608, 697, 858, 826, 1377, 1133, 1371, 727]","['x-x-x', 'modeled', 'apostle', 'lack', 'send', 'none', 'hope', 'sell', 'align', 'vary', 'week', 'debut', 'concerto', 'girl.']",0.0-4.0-0.2,15,"[1, 0, 1, 1, 0, 0, 1, 0, 1, 0, 0, 1, 0, 0]",,"[803, 742, 797, 893, 581, 706, 608, 697, 858, 826, 1377, 1133, 1371, 727]",The fireman smashed down the door with the heavy axe but smoke overcame him.,,108967,6,maze,VP,"['The', 'fireman', 'smashed', 'down', 'the', 'door', 'with', 'the', 'heavy', 'axe', 'but', 'smoke', 'overcame', 'him.']",
989,1,,,,0.0-5.0,,,,,,,109969,7,html-button-response,,,
989,1,"[1, 1, 1, 1, 1, 1, 1, 1, 1, 1, 1, 1, 1, 1, 1, 1, 1, 1]","[1452, 1015, 639, 765, 1103, 659, 768, 795, 1654, 928, 677, 837, 667, 863, 1050, 1182, 834, 639]","['x-x-x', 'prices', 'eyes', 'vitamins', 'lack', 'shut', 'updates', 'yes', 'flows', 'tasks.', 'x-x-x', 'stupid', 'cup', 'feet', 'met', 'exists', 'none', 'settle.']",0.0-6.0-0.0,16,"[0, 1, 1, 0, 0, 1, 0, 0, 0, 1, 0, 0, 0, 1, 0, 0, 1, 1]",,"[1452, 1015, 639, 765, 1103, 659, 768, 795, 1654, 928, 677, 837, 667, 863, 1050, 1182, 834, 639]",A little girl borrowed from the kitchen a bread knife. She wanted to cut an orange into pieces.,,126501,8,maze,setup,"['A', 'little', 'girl', 'borrowed', 'from', 'the', 'kitchen', 'a', 'bread', 'knife.', 'She', 'wanted', 'to', 'cut', 'an', 'orange', 'into', 'pieces.']",
989,1,"[1, 1, 1, 1, 1, 1, 1, 1, 1, 1, 1, 1, 1, 1, 1, 1, 1, 1, 1, 1, 1, 1]","[708, 1096, 2289, 613, 766, 1307, 885, 908, 936, 1001, 611, 750, 734, 728, 733, 679, 1380, 971, 655, 593, 890, 629]","['x-x-x', 'worse', 'shut', 'guy', 'hates', 'fate', 'goal', 'senate', 'plans', 'mind', 'job', 'gets', 'argue', 'lire', 'cars', 'wait', 'renovate', 'goals', 'shop', 'plan', 'harm', 'saws.']",0.0-6.0-0.1,16,"[1, 1, 1, 1, 0, 0, 1, 0, 0, 1, 1, 0, 0, 1, 0, 0, 1, 0, 0, 0, 1, 1]",,"[708, 1096, 2289, 613, 766, 1307, 885, 908, 936, 1001, 611, 750, 734, 728, 733, 679, 1380, 971, 655, 593, 890, 629]",She found in the fruit bowl an orange which had a very thick rind and a tangerine which had a thin rind.,,146373,9,maze,1-context,"['She', 'found', 'in', 'the', 'fruit', 'bowl', 'an', 'orange', 'which', 'had', 'a', 'very', 'thick', 'rind', 'and', 'a', 'tangerine', 'which', 'had', 'a', 'thin', 'rind.']",
989,1,"[1, 1, 1, 1, 1, 1, 1, 1, 1, 1, 1, 1, 1, 1, 1, 1]","[900, 757, 638, 728, 608, 1428, 569, 785, 631, 653, 1114, 584, 684, 1452, 1155, 699]","['x-x-x', 'enough', 'shut', 'trump', 'hall', 'upon', 'trip', 'expect', 'hope', 'than', 'acres', 'lien', 'self', 'us', 'till', 'follows.']",0.0-6.0-0.2,16,"[0, 1, 1, 0, 0, 0, 1, 0, 0, 0, 0, 1, 0, 0, 1, 1]",,"[900, 757, 638, 728, 608, 1428, 569, 785, 631, 653, 1114, 584, 684, 1452, 1155, 699]",The little girl tried to cut the orange with the bread knife but to no success.,,159767,10,maze,VP,"['The', 'little', 'girl', 'tried', 'to', 'cut', 'the', 'orange', 'with', 'the', 'bread', 'knife', 'but', 'to', 'no', 'success.']",
989,1,,,,0.0-7.0,,,,,,,160768,11,html-button-response,,,
989,1,"[1, 1, 1, 1, 1, 1, 1, 1, 1, 1, 1, 1, 1, 1, 1, 1, 1]","[677, 1054, 780, 1108, 746, 578, 752, 1137, 633, 615, 659, 637, 779, 608, 848, 546, 712]","['x-x-x', 'rumors', 'nice', 'hall', 'courses', 'mark', 'cops', 'worst', 'meet', 'gigs.', 'x-x-x', 'else', 'memories', 'send', 'info', 'gain', 'resign.']",0.0-8.0-0.0,11,"[0, 1, 0, 0, 0, 0, 1, 0, 1, 1, 0, 0, 0, 0, 1, 0, 0]",,"[677, 1054, 780, 1108, 746, 578, 752, 1137, 633, 615, 659, 637, 779, 608, 848, 546, 712]",A monkey had been trained to eat using a fork. It was supposed to eat a banana.,,173646,12,maze,setup,"['A', 'monkey', 'had', 'been', 'trained', 'to', 'eat', 'using', 'a', 'fork.', 'It', 'was', 'supposed', 'to', 'eat', 'a', 'banana.']",
989,1,"[1, 1, 1, 1, 1, 1, 1, 1, 1, 1, 1, 1, 1, 1, 1, 1, 1]","[836, 707, 952, 593, 774, 857, 783, 663, 1304, 648, 564, 644, 726, 936, 808, 825, 981]","['x-x-x', 'mid', 'worry', 'kid', 'misses', 'goals', 'mind', 'step', 'faking', 'else', 'am', 'vote', 'deal', 'deals', 'risk', 'jobs', 'opinion.']",0.0-8.0-0.1,11,"[0, 1, 1, 1, 0, 1, 1, 1, 1, 0, 1, 0, 0, 0, 0, 0, 1]",,"[836, 707, 952, 593, 774, 857, 783, 663, 1304, 648, 564, 644, 726, 936, 808, 825, 981]",It was given a banana which had a bruise on it and an apple that was perfect.,,187255,13,maze,1-context,"['It', 'was', 'given', 'a', 'banana', 'which', 'had', 'a', 'bruise', 'on', 'it', 'and', 'an', 'apple', 'that', 'was', 'perfect.']",
989,1,"[1, 1, 1, 1, 1, 1, 1, 1, 1, 1, 1, 1]","[654, 754, 960, 521, 551, 800, 731, 967, 1132, 682, 945, 885]","['x-x-x', 'deploy', 'ease', 'gain', 'trends', 'risk', 'hall', 'squads', 'jobs', 'rule', 'governance', 'attorney.']",0.0-8.0-0.2,11,"[0, 0, 0, 0, 0, 0, 0, 1, 0, 0, 1, 0]",,"[654, 754, 960, 521, 551, 800, 731, 967, 1132, 682, 945, 885]",The monkey ate the banana with the fork much to everyone’s surprise.,,196846,14,maze,VP,"['The', 'monkey', 'ate', 'the', 'banana', 'with', 'the', 'fork', 'much', 'to', 'everyone’s', 'surprise.']",
989,1,,,,0.0-9.0,,,,,,,197847,15,html-button-response,,,
989,1,"[1, 1, 1, 1, 1, 1, 1, 1, 1, 1, 1, 1, 1, 1, 1, 1, 1, 1, 1]","[1179, 871, 926, 560, 654, 481, 859, 764, 772, 1461, 1099, 959, 681, 748, 867, 634, 944, 598, 2099]","['x-x-x', 'habitats', 'finals', 'god', 'cent', 'soul', 'sir', 'churches', 'yeah', 'expand', 'rarity.', 'x-x-x', 'amazing', 'mess', 'sale', 'app', 'senate', 'pre', 'dams.']",0.0-10.0-0.0,2,"[1, 1, 0, 0, 1, 1, 1, 0, 1, 1, 1, 0, 0, 1, 1, 0, 1, 1, 0]",,"[1179, 871, 926, 560, 654, 481, 859, 764, 772, 1461, 1099, 959, 681, 748, 867, 634, 944, 598, 2099]",A mechanic walked up to a car carrying a monkey wrench. He thought he’d have to change a tyre.,,215009,16,maze,setup,"['A', 'mechanic', 'walked', 'up', 'to', 'a', 'car', 'carrying', 'a', 'monkey', 'wrench.', 'He', 'thought', 'he’d', 'have', 'to', 'change', 'a', 'tyre.']",
989,1,"[1, 1, 1, 1, 1, 1, 1, 1, 1, 1, 1, 1, 1, 1, 1, 1, 1, 1, 1, 1, 1, 1, 1, 1, 1, 1, 1]","[1078, 1308, 632, 836, 677, 779, 738, 699, 812, 569, 1651, 912, 673, 619, 900, 956, 523, 827, 1013, 760, 618, 753, 649, 899, 1103, 974, 667]","['x-x-x', 'motivated', 'hour', 'whom', 'al', 'queen', 'jack', 'agree', 'glad', 'app', 'airs', 'games', 'pre', 'sir', 'trolls', 'hates', 'hear', 'lord', 'rite', 'holy', 'happy', 'page', 'cent', 'wrote', 'dawn', 'god', 'knew.']",0.0-10.0-0.1,2,"[0, 1, 1, 0, 0, 0, 0, 0, 1, 1, 0, 0, 1, 1, 0, 1, 1, 1, 0, 1, 1, 1, 0, 1, 0, 0, 1]",,"[1078, 1308, 632, 836, 677, 779, 738, 699, 812, 569, 1651, 912, 673, 619, 900, 956, 523, 827, 1013, 760, 618, 753, 649, 899, 1103, 974, 667]",On examining the car he found that there was a tyre which had a faulty valve and a fuel line which had a small hole in it.,,237645,17,maze,1-context,"['On', 'examining', 'the', 'car', 'he', 'found', 'that', 'there', 'was', 'a', 'tyre', 'which', 'had', 'a', 'faulty', 'valve', 'and', 'a', 'fuel', 'line', 'which', 'had', 'a', 'small', 'hole', 'in', 'it.']",
989,1,"[1, 1, 1, 1, 1, 1, 1, 1, 1, 1, 1, 1, 1, 1, 1]","[754, 780, 810, 605, 613, 826, 939, 1915, 1205, 1075, 1114, 862, 571, 699, 799]","['x-x-x', 'marketed', 'seconds', 'miss', 'oaks', 'sick', 'died', 'preach', 'uphold', 'eat', 'fund', 'hate', 'hall', 'hear', 'born.']",0.0-10.0-0.2,2,"[0, 0, 1, 1, 0, 1, 0, 1, 0, 0, 1, 0, 0, 0, 1]",,"[754, 780, 810, 605, 613, 826, 939, 1915, 1205, 1075, 1114, 862, 571, 699, 799]",The mechanic changed the tyre with the faulty valve but it took a long time.,,251219,18,maze,NP,"['The', 'mechanic', 'changed', 'the', 'tyre', 'with', 'the', 'faulty', 'valve', 'but', 'it', 'took', 'a', 'long', 'time.']",
989,1,,,,0.0-11.0,,,,,,,252220,19,html-button-response,,,
989,1,"[1, 1, 1, 1, 1, 1, 1, 1, 1, 1, 1, 1, 1, 1, 1, 1, 1, 1, 0, 1, 1, 1, 1, 1, 1]","[2585, 891, 665, 1018, 850, 567, 898, 899, 712, 701, 1054, 680, 660, 607, 861, 1250, 948, 557, 1384, 1078, 1032, 1378, 749, 872, 809]","['x-x-x', 'drinks', 'guys', 'anymore', 'push', 'eat', 'apply', 'nations', 'non', 'goes', 'spite.', 'x-x-x', 'else', 'am', 'throws', 'symbolizing', 'lots', 'hill', 'wood', 'basis', 'same', 'sizes', 'gift', 'hear', 'beings.']",0.0-12.0-0.0,7,"[1, 0, 0, 0, 1, 1, 1, 1, 0, 0, 1, 0, 1, 0, 0, 0, 1, 1, 1, 0, 0, 0, 1, 0, 1]",,"[2585, 891, 665, 1018, 850, 567, 898, 899, 712, 701, 1054, 680, 660, 607, 861, 1250, 948, 557, 634, 1078, 1032, 1378, 749, 872, 809]",An artist was working at a table holding a long brush. He had a sudden premonition that he was going to knock over a bottle.,,275942,20,maze,setup,"['An', 'artist', 'was', 'working', 'at', 'a', 'table', 'holding', 'a', 'long', 'brush.', 'He', 'had', 'a', 'sudden', 'premonition', 'that', 'he', 'was', 'going', 'to', 'knock', 'over', 'a', 'bottle.']",
989,1,"[1, 1, 1, 1, 1, 1, 1, 1, 1, 1, 1, 1, 1, 1, 1, 1, 1]","[732, 702, 892, 826, 817, 521, 1049, 1005, 1120, 982, 687, 593, 875, 842, 928, 556, 1309]","['x-x-x', 'bag', 'aware', 'sorry', 'okay', 'knew', 'abroad', 'interviews', 'bill', 'relax', 'ask', 'vote', 'blame', 'vows', 'defend', 'move', 'agree.']",0.0-12.0-0.1,7,"[0, 1, 1, 1, 0, 0, 0, 1, 1, 0, 1, 1, 0, 1, 0, 1, 1]",,"[732, 702, 892, 826, 817, 521, 1049, 1005, 1120, 982, 687, 593, 875, 842, 928, 556, 1309]",On the table there was a bottle containing some paint and a small jug filled with water.,,290388,21,maze,1-context,"['On', 'the', 'table', 'there', 'was', 'a', 'bottle', 'containing', 'some', 'paint', 'and', 'a', 'small', 'jug', 'filled', 'with', 'water.']",
989,1,"[1, 1, 1, 1, 1, 1, 1, 1, 1, 1, 1, 1, 1]","[754, 610, 1130, 812, 609, 653, 886, 747, 568, 858, 618, 1491, 953]","['x-x-x', 'anyway', 'barristers', 'verdict', 'mean', 'wish', 'depend', 'hear', 'knew', 'meets', 'wait', 'ethic', 'barrow.']",0.0-12.0-0.2,7,"[0, 0, 0, 0, 0, 0, 0, 0, 0, 1, 1, 1, 0]",,"[754, 610, 1130, 812, 609, 653, 886, 747, 568, 858, 618, 1491, 953]",The artist accidently knocked over the bottle with the paint and swore loudly.,,301083,22,maze,NP,"['The', 'artist', 'accidently', 'knocked', 'over', 'the', 'bottle', 'with', 'the', 'paint', 'and', 'swore', 'loudly.']",
989,1,,,,0.0-13.0,,,,,,,302085,23,html-button-response,,,
989,1,"[1, 1, 1, 1, 1, 1, 1, 1, 1, 1, 1, 1, 1, 1, 1, 1]","[982, 1114, 696, 548, 659, 623, 669, 1020, 862, 746, 777, 788, 922, 1214, 512, 815]","['x-x-x', 'packets', 'marry', 'term', 'grow', 'adds', 'deserves', 'yeah', 'climates.', 'x-x-x', 'painful', 'cent', 'wars', 'glad', 'gift', 'none.']",0.0-14.0-0.0,1,"[1, 0, 0, 0, 1, 1, 0, 1, 0, 1, 0, 0, 0, 0, 1, 0]",,"[982, 1114, 696, 548, 659, 623, 669, 1020, 862, 746, 777, 788, 922, 1214, 512, 815]",A burglar broke into a bank carrying some dynamite. He planned to blow open a safe.,,315038,24,maze,setup,"['A', 'burglar', 'broke', 'into', 'a', 'bank', 'carrying', 'some', 'dynamite.', 'He', 'planned', 'to', 'blow', 'open', 'a', 'safe.']",
989,1,"[1, 1, 1, 1, 1, 1, 1, 1, 1, 1, 1, 1, 1, 1, 1, 1, 0, 1, 1, 1, 1, 1]","[879, 919, 678, 833, 986, 881, 735, 591, 1042, 1095, 617, 491, 854, 749, 747, 1001, 2166, 1343, 577, 919, 927, 696]","['x-x-x', 'senate', 'dad', 'sir', 'fund', 'agree', 'lord', 'vs', 'died', 'tells', 'cent', 'says', 'ago', 'mice', 'sad', 'pro', 'eradicate', 'worst', 'pre', 'oh', 'yeah', 'woke.']",0.0-14.0-0.1,1,"[0, 1, 1, 0, 1, 1, 0, 1, 1, 1, 1, 1, 0, 1, 1, 1, 1, 1, 1, 1, 1, 1]",,"[879, 919, 678, 833, 986, 881, 735, 591, 1042, 1095, 617, 491, 854, 749, 747, 1001, 1511, 1343, 577, 919, 927, 696]",Once inside he saw that there was a safe which had a new lock and a safe which had an old lock.,,334771,25,maze,2-context,"['Once', 'inside', 'he', 'saw', 'that', 'there', 'was', 'a', 'safe', 'which', 'had', 'a', 'new', 'lock', 'and', 'a', 'safe', 'which', 'had', 'an', 'old', 'lock.']",
989,1,"[1, 1, 1, 1, 1, 1, 1, 1, 1, 1, 1, 1, 1, 1, 1, 1]","[586, 1012, 1133, 1044, 827, 683, 1074, 539, 1078, 1297, 702, 890, 1070, 605, 635, 936]","['x-x-x', 'denoted', 'slim', 'date', 'yeah', 'glad', 'hate', 'app', 'explores', 'earn', 'sir', 'wish', 'ago', 'lord', 'fund', 'alma.']",0.0-14.0-0.2,1,"[1, 0, 0, 0, 1, 1, 0, 1, 1, 0, 0, 1, 1, 1, 0, 1]",,"[586, 1012, 1133, 1044, 827, 683, 1074, 539, 1078, 1297, 702, 890, 1070, 605, 635, 936]",The burglar blew open the safe with the new lock and made off with the loot.,,348888,26,maze,NP,"['The', 'burglar', 'blew', 'open', 'the', 'safe', 'with', 'the', 'new', 'lock', 'and', 'made', 'off', 'with', 'the', 'loot.']",
989,1,,,,0.0-15.0,,,,,,,349889,27,html-button-response,,,
989,1,"[1, 1, 1, 1, 1, 1, 1, 1, 1, 1, 1, 1, 1, 1, 1, 1, 1]","[2172, 2412, 850, 899, 750, 778, 1100, 910, 1036, 1312, 639, 1514, 718, 648, 995, 624, 746]","['x-x-x', 'bloodshed', 'nice', 'streets', 'award', 'eyes', 'produces', 'patience', 'lose', 'repay.', 'x-x-x', 'move', 'park', 'link', 'ladder', 'bet', 'ages.']",0.0-16.0-0.0,12,"[1, 0, 0, 1, 1, 0, 1, 1, 1, 0, 1, 1, 1, 0, 0, 0, 1]",,"[2172, 2412, 850, 899, 750, 778, 1100, 910, 1036, 1312, 639, 1514, 718, 648, 995, 624, 746]",A caretaker was walking along a corridor carrying some nails. He’d been told to repair a door.,,367999,28,maze,setup,"['A', 'caretaker', 'was', 'walking', 'along', 'a', 'corridor', 'carrying', 'some', 'nails.', 'He’d', 'been', 'told', 'to', 'repair', 'a', 'door.']",
989,1,"[1, 1, 1, 1, 1, 1, 1, 1, 1, 1, 1, 1, 1, 1, 1, 1, 1, 1]","[563, 878, 649, 661, 764, 640, 640, 876, 869, 568, 727, 773, 716, 1830, 1053, 1277, 786, 979]","['x-x-x', 'lady', 'week', 'dies', 'wants', 'sick', 'card', 'knows', 'foods', 'lots', 'trip', 'sex', 'rule', 'talks', 'spend', 'daughter', 'ages', 'catholic.']",0.0-16.0-0.1,12,"[1, 1, 1, 0, 0, 1, 0, 1, 0, 1, 0, 0, 0, 0, 1, 0, 0, 1]",,"[563, 878, 649, 661, 764, 640, 640, 876, 869, 568, 727, 773, 716, 1830, 1053, 1277, 786, 979]",He saw a door which had a large crack in it and a locker which wouldn't shut properly.,,383257,29,maze,1-context,"['He', 'saw', 'a', 'door', 'which', 'had', 'a', 'large', 'crack', 'in', 'it', 'and', 'a', 'locker', 'which', ""wouldn't"", 'shut', 'properly.']",
989,1,"[1, 1, 1, 1, 1, 1, 1, 1, 1, 1, 1, 1, 1, 1]","[634, 804, 1217, 876, 754, 1085, 921, 827, 671, 1279, 1074, 550, 1107, 986]","['x-x-x', 'rescinded', 'infinity', 'sell', 'none', 'want', 'than', 'ought', 'yes', 'mean', 'fact', 'seem', 'ages', 'weird.']",0.0-16.0-0.2,12,"[1, 0, 0, 0, 1, 0, 1, 0, 0, 0, 0, 0, 1, 0]",,"[634, 804, 1217, 876, 754, 1085, 921, 827, 671, 1279, 1074, 550, 1107, 986]",The caretaker repaired the door with the nails and then took a tea break.,,396054,30,maze,VP,"['The', 'caretaker', 'repaired', 'the', 'door', 'with', 'the', 'nails', 'and', 'then', 'took', 'a', 'tea', 'break.']",
989,1,,,,0.0-17.0,,,,,,,397055,31,html-button-response,,,
