workerid,proliferate.condition,correct,cumrt,distractors,internal_node_id,order,response,rt,stimulus,time_elapsed,trial_index,trial_type,words,error
938,1,,,,0.0-0.0,,0,1117," <center><img width=""300px"" src=""assets/stanford.png"" /></center><div id=""legal""></br>By answering the following questions, you are participating in a study being performed by cognitive scientists in the Stanford Department of Psychology. If you have questions about this research, please contact us at  <a href=""mailto://languagecoglab@gmail.com.""> languagecoglab@gmail.com</a>.You must be at least 18 years old to participate. Your participation in this research is voluntary. You may decline to answer any or all of the following questions. You may decline further participation, at any time, without adverse consequences. Your anonymity is assured; the researchers who have requested your participation will not receive any personal information about you. </div></br>",1118,0,html-button-response,,
938,1,,,,0.0-1.0,,0,9128,"<h3>Please read these instructions carefully!</h3> </br><p>For this experiment, please place your <b>left index finger on the 'e' key</b> and your <b>right index finger on the 'i' key</b>.</p><p> You will read sentences word by word. However, you will have to guess which word comes next.On each screen you will see two options: one will be the next word in the sentence, and one will not. </p><p><b>Select the word that continues the sentence by pressing 'e' (left-hand) for the word on the left or pressing 'i' (right-hand) for the word on the right.</b></p><p>Select the best word as quickly as you can, but without making too many errors. </p><div><p>Click ""Continue"" to try this on a practice sentence.</p></div>",10247,1,html-button-response,,
938,1,"[1, 1, 1, 1, 1, 1, 1, 1, 1, 1, 1, 1, 1, 1]","[2917, 1057, 910, 874, 803, 1028, 864, 706, 737, 2493, 565, 662, 622, 739]","['x-x-x', 'whom', 'knew', 'appeared', 'emotions', 'know', 'dad', 'lake', 'edition', 'jack', 'fans', 'fund', 'grow', 'died.']",0.0-2.0,"[1, 1, 1, 1, 0, 1, 0, 1, 0, 0, 0, 1, 0, 1]",,"[2917, 1057, 910, 874, 803, 1028, 864, 706, 737, 2493, 565, 662, 622, 739]",,25233,2,maze,"['This', 'is', 'a', 'practice', 'sentence', 'that', 'you', 'are', 'reading', 'one', 'word', 'at', 'a', 'time.']",
938,1,,,,0.0-3.0,,0,1985,"<h3>Please read these instructions carefully!</h3> </br><p>Great job! Now you are ready for the main experiment.</p><p> You will now read 16 short stories in the same word-by-word way.</p><div><p>Click ""Continue"" to start the experiment.</p>",27219,3,html-button-response,,
938,1,"[1, 1, 1, 1, 1, 1, 1, 1, 1, 1, 1, 1, 1, 1, 1, 1, 1, 1, 1, 1, 1]","[1583, 1462, 903, 994, 924, 836, 767, 867, 960, 729, 701, 1083, 846, 754, 1321, 697, 899, 855, 1090, 863, 704]","['x-x-x', 'videos', 'rid', 'loss', 'reasons', 'plan', 'done', 'assets', 'thrones', 'lost', 'maps', 'truth.', 'x-x-x', 'seat', 'temper', 'spot', 'cape', 'republic', 'doors', 'site', 'voices.']",0.0-4.0-0.0,"[1, 1, 0, 0, 1, 0, 1, 0, 1, 0, 1, 1, 1, 0, 0, 0, 1, 1, 0, 0, 1]",,"[1583, 1462, 903, 994, 924, 836, 767, 867, 960, 729, 701, 1083, 846, 754, 1321, 697, 899, 855, 1090, 863, 704]",,47060,4,maze,"['A', 'little', 'boy', 'was', 'playing', 'in', 'a', 'garden', 'kicking', 'a', 'ball', 'about.', 'He', 'was', 'warned', 'that', 'he’d', 'probably', 'break', 'a', 'window.']",
938,1,"[1, 1, 1, 1, 1, 1, 1, 1, 1, 1, 1, 1, 1, 1, 1, 1, 1, 1, 1]","[1144, 1693, 732, 867, 674, 772, 646, 688, 950, 701, 711, 638, 888, 1380, 1940, 616, 624, 667, 892]","['x-x-x', 'huge', 'cast', 'slow', 'pull', 'phones', 'lives', 'ice', 'job', 'firms', 'cars', 'find', 'sex', 'law', 'behalf', 'wife', 'notice', 'song', 'pay.']",0.0-4.0-0.1,"[0, 0, 1, 1, 0, 1, 0, 0, 0, 0, 0, 0, 0, 0, 0, 1, 0, 1, 0]",,"[1144, 1693, 732, 867, 674, 772, 646, 688, 950, 701, 711, 638, 888, 1380, 1940, 616, 624, 667, 892]",,64286,5,maze,"['Close', 'to', 'him', 'was', 'a', 'window', 'which', 'had', 'a', 'crack', 'in', 'it', 'and', 'a', 'statue', 'that', 'looked', 'very', 'old.']",
938,1,"[1, 1, 1, 1, 1, 1, 1, 1, 1, 1, 1, 1, 1, 1]","[669, 805, 802, 1340, 628, 993, 614, 948, 694, 469, 759, 2136, 613, 709]","['x-x-x', 'gone', 'huge', 'significance', 'miles', 'did', 'behalf', 'join', 'role', 'occur', 'sex', 'wars', 'size', 'decade.']",0.0-4.0-0.2,"[1, 1, 1, 1, 0, 1, 0, 0, 0, 0, 1, 0, 0, 1]",,"[669, 805, 802, 1340, 628, 993, 614, 948, 694, 469, 759, 2136, 613, 709]",,76470,6,maze,"['The', 'boy', 'did', 'accidentally', 'break', 'the', 'window', 'with', 'the', 'ball', 'and', 'ran', 'home', 'crying.']",
938,1,,,,0.0-5.0,,,,,77473,7,html-button-response,,
938,1,"[1, 1, 1, 1, 1, 1, 1, 1, 1, 1, 1, 1, 1, 1, 1, 1, 1, 1, 1, 1, 1, 1, 1]","[5852, 1206, 848, 711, 651, 718, 566, 711, 581, 973, 1107, 734, 2941, 529, 748, 699, 690, 651, 694, 631, 768, 652, 568]","['x-x-x', 'batters', 'join', 'videos', 'goal', 'types', 'rose', 'died', 'terms', 'male', 'firm', 'size', 'writes', 'suck', 'wind', 'skin', 'thus.', 'x-x-x', 'happen', 'foot', 'upon', 'lie', 'tend.']",0.0-6.0-0.0,"[0, 1, 1, 1, 1, 0, 1, 1, 0, 0, 0, 1, 0, 0, 1, 1, 0, 1, 0, 0, 1, 1, 1]",,"[5852, 1206, 848, 711, 651, 718, 566, 711, 581, 973, 1107, 734, 2941, 529, 748, 699, 690, 651, 694, 631, 768, 652, 568]",,101707,8,maze,"['A', 'burglar', 'was', 'trying', 'to', 'break', 'into', 'a', 'house', 'and', 'had', 'a', 'credit', 'card', 'in', 'his', 'hand.', 'He', 'wanted', 'to', 'open', 'a', 'door.']",
938,1,"[1, 1, 1, 1, 1, 1, 1, 1, 1, 1, 1, 1, 1, 1, 1, 1, 1]","[618, 785, 555, 982, 581, 578, 655, 864, 602, 589, 765, 696, 792, 580, 768, 823, 756]","['x-x-x', 'queen', 'draw', 'onto', 'stars', 'fat', 'dog', 'assert', 'tons', 'poor', 'boys', 'movies', 'weird', 'gay', 'race', 'propose', 'gifts.']",0.0-6.0-0.1,"[1, 1, 1, 0, 0, 1, 0, 1, 0, 0, 1, 1, 1, 1, 0, 1, 0]",,"[618, 785, 555, 982, 581, 578, 655, 864, 602, 589, 765, 696, 792, 580, 768, 823, 756]",,113700,9,maze,"['He', 'found', 'a', 'door', 'which', 'had', 'a', 'faulty', 'lock', 'and', 'a', 'window', 'which', 'had', 'a', 'cracked', 'frame.']",
938,1,"[1, 1, 1, 1, 1, 1, 1, 1, 1, 1, 1, 1, 1]","[743, 647, 840, 738, 817, 851, 627, 1404, 573, 659, 722, 777, 753]","['x-x-x', 'expands', 'silver', 'drop', 'thus', 'male', 'site', 'relies', 'tend', 'sea', 'affairs', 'honesty', 'degree.']",0.0-6.0-0.2,"[1, 1, 1, 0, 1, 1, 0, 0, 0, 1, 1, 0, 1]",,"[743, 647, 840, 738, 817, 851, 627, 1404, 573, 659, 722, 777, 753]",,123857,10,maze,"['The', 'burglar', 'opened', 'the', 'door', 'with', 'the', 'faulty', 'lock', 'and', 'quickly', 'slipped', 'inside.']",
938,1,,,,0.0-7.0,,,,,124859,11,html-button-response,,
938,1,"[1, 1, 1, 1, 1, 1, 1, 1, 1, 1, 1, 1, 1, 1, 1, 1, 1, 1, 1, 1, 1]","[2513, 1998, 709, 789, 630, 618, 678, 677, 747, 756, 603, 820, 604, 883, 697, 738, 673, 759, 741, 710, 847]","['x-x-x', 'defections', 'fear', 'percent', 'buy', 'guy', 'yards', 'teams', 'hurt', 'deny', 'ways', 'inspires.', 'x-x-x', 'lot', 'card', 'lady', 'born', 'tomorrow', 'ask', 'died', 'relates.']",0.0-8.0-0.0,"[0, 0, 1, 0, 0, 1, 0, 0, 1, 1, 0, 0, 1, 0, 1, 0, 0, 1, 0, 0, 1]",,"[2513, 1998, 709, 789, 630, 618, 678, 677, 747, 756, 603, 820, 604, 883, 697, 738, 673, 759, 741, 710, 847]",,143057,12,maze,"['A', 'dressmaker', 'was', 'working', 'on', 'a', 'dress', 'using', 'a', 'pair', 'of', 'scissors.', 'She', 'had', 'to', 'cut', 'some', 'material', 'for', 'the', 'pockets.']",
938,1,"[1, 1, 1, 1, 1, 1, 1, 1, 1, 1, 1, 1, 1, 1, 1, 1, 1, 1, 1, 1]","[608, 644, 731, 1689, 647, 843, 664, 836, 644, 660, 633, 620, 672, 600, 960, 736, 1141, 511, 552, 604]","['x-x-x', 'fact', 'lake', 'shall', 'cold', 'universe', 'users', 'cash', 'spot', 'embassy', 'boys', 'want', 'jobs', 'rule', 'taxes', 'kids', 'outcome', 'rates', 'buy', 'quest.']",0.0-8.0-0.1,"[0, 1, 1, 1, 1, 0, 1, 1, 1, 0, 1, 0, 0, 1, 1, 1, 1, 0, 1, 0]",,"[608, 644, 731, 1689, 647, 843, 664, 836, 644, 660, 633, 620, 672, 600, 960, 736, 1141, 511, 552, 604]",,158059,13,maze,"['She', 'had', 'a', 'piece', 'of', 'material', 'which', 'had', 'a', 'pattern', 'on', 'it', 'and', 'a', 'piece', 'of', 'material', 'which', 'was', 'plain.']",
938,1,"[1, 1, 1, 1, 1, 1, 1, 1, 1, 1, 1, 1, 1, 1]","[515, 694, 855, 575, 812, 770, 758, 620, 664, 886, 839, 645, 1210, 782]","['x-x-x', 'locomotion', 'cool', 'ask', 'enjoying', 'sure', 'bet', 'educate', 'town', 'born', 'boys', 'date', 'plus', 'robin.']",0.0-8.0-0.2,"[1, 0, 1, 1, 1, 0, 0, 0, 0, 0, 0, 1, 0, 1]",,"[515, 694, 855, 575, 812, 770, 758, 620, 664, 886, 839, 645, 1210, 782]",,168690,14,maze,"['The', 'dressmaker', 'cut', 'the', 'material', 'with', 'the', 'scissors', 'and', 'then', 'went', 'to', 'have', 'lunch.']",
938,1,,,,0.0-9.0,,,,,169693,15,html-button-response,,
938,1,"[1, 1, 1, 1, 1, 1, 1, 1, 1, 1, 1, 1, 1, 1, 1, 1, 1, 1, 1, 1]","[3593, 865, 918, 687, 1101, 816, 643, 1583, 783, 666, 1729, 1376, 654, 646, 774, 593, 577, 705, 594, 593]","['x-x-x', 'disagreements', 'decade', 'lake', 'heard', 'democrat', 'miss', 'attest', 'vain.', 'x-x-x', 'emplacements', 'carol', 'lady', 'jack', 'mouth', 'anti', 'hill', 'cops', 'bag', 'nor.']",0.0-10.0-0.0,"[0, 1, 0, 0, 0, 0, 0, 0, 1, 0, 1, 0, 0, 1, 1, 0, 1, 1, 0, 1]",,"[3593, 865, 918, 687, 1101, 816, 643, 1583, 783, 666, 1729, 1376, 654, 646, 774, 593, 577, 705, 594, 593]",,189592,16,maze,"['A', 'schoolteacher', 'walked', 'into', 'class', 'carrying', 'a', 'bamboo', 'cane.', 'He', 'sadistically', 'hoped', 'that', 'he', 'would', 'have', 'to', 'beat', 'a', 'boy.']",
938,1,"[1, 1, 1, 1, 1, 1, 1, 1, 0, 1, 1, 1, 1, 1, 1, 1, 1, 1, 1, 1, 1, 1, 1]","[567, 866, 759, 575, 610, 727, 539, 588, 3478, 741, 941, 638, 608, 593, 601, 611, 822, 925, 2316, 831, 641, 606, 577]","['x-x-x', 'deserved', 'okay', 'luck', 'jack', 'miss', 'nor', 'ways', 'mid', 'sale', 'prices', 'via', 'tax', 'vs', 'till', 'anti', 'sour', 'achieve', 'market', 'types', 'al', 'soul', 'plus.']",0.0-10.0-0.1,"[1, 0, 0, 1, 0, 0, 0, 1, 0, 0, 1, 0, 0, 0, 1, 0, 1, 0, 0, 1, 0, 1, 0]",,"[567, 866, 759, 575, 610, 727, 539, 588, 2142, 741, 941, 638, 608, 593, 601, 611, 822, 925, 2316, 831, 641, 606, 577]",,209761,17,maze,"['On', 'entering', 'he', 'saw', 'that', 'a', 'boy', 'who', 'had', 'a', 'broken', 'leg', 'and', 'a', 'girl', 'who', 'wore', 'glasses', ""didn't"", 'stand', 'up', 'for', 'him.']",
938,1,"[1, 1, 1, 1, 1, 1, 1, 1, 1, 1, 1, 1, 1, 1, 1]","[1910, 997, 767, 523, 506, 678, 575, 1092, 901, 1006, 895, 462, 1022, 946, 750]","['x-x-x', 'characterised', 'anti', 'seem', 'nor', 'date', 'know', 'exists', 'vary', 'fact', 'sale', 'via', 'global', 'wars', 'laws.']",0.0-10.0-0.2,"[1, 1, 1, 0, 1, 1, 0, 1, 0, 1, 1, 0, 0, 0, 1]",,"[1910, 997, 767, 523, 506, 678, 575, 1092, 901, 1006, 895, 462, 1022, 946, 750]",,222796,18,maze,"['The', 'schoolteacher', 'beat', 'the', 'boy', 'with', 'the', 'bamboo', 'cane', 'but', 'the', 'boy', ""didn't"", 'cry', 'out.']",
938,1,,,,0.0-11.0,,,,,223798,19,html-button-response,,
938,1,"[1, 1, 1, 1, 1, 1, 1, 1, 1, 1, 1, 1, 1, 1, 1, 1, 1, 1, 0, 1, 1, 1, 1, 1, 1]","[2968, 1772, 672, 651, 481, 536, 891, 511, 685, 598, 655, 1029, 669, 1047, 722, 571, 702, 681, 1273, 1067, 705, 616, 699, 768, 1322]","['x-x-x', 'capacities', 'cool', 'gold', 'text', 'sun', 'each', 'fat', 'does', 'feel', 'rate', 'overthrew.', 'x-x-x', 'move', 'ring', 'park', 'east', 'link', 'met', 'substances', 'reached', 'feet', 'starship', 'wear', 'calls.']",0.0-12.0-0.0,"[1, 1, 0, 0, 1, 0, 1, 0, 0, 1, 1, 1, 0, 0, 1, 0, 1, 1, 1, 0, 1, 1, 1, 1, 1]",,"[2968, 1772, 672, 651, 481, 536, 891, 511, 685, 598, 655, 1029, 669, 1047, 722, 571, 702, 681, 747, 1067, 705, 616, 699, 768, 1322]",,246097,20,maze,"['A', 'demolition', 'man', 'was', 'on', 'his', 'way', 'to', 'work', 'in', 'his', 'bulldozer.', 'He’d', 'been', 'told', 'to', 'go', 'to', 'a', 'particular', 'address', 'to', 'demolish', 'a', 'house.']",
938,1,"[1, 1, 1, 1, 1, 1, 1, 1, 1, 1, 1, 1, 1, 1, 1, 1, 1, 1, 1, 1, 1, 1, 1]","[819, 1128, 871, 681, 664, 673, 598, 611, 721, 952, 707, 780, 713, 589, 627, 564, 575, 617, 1318, 1344, 504, 1607, 853]","['x-x-x', 'bed', 'uses', 'follows', 'wear', 'brown', 'walk', 'comes', 'super', 'push', 'step', 'comets', 'deployed', 'me', 'goes', 'anyway', 'pain', 'fear', 'except', 'trouble', 'data', 'ford', 'encoding.']",0.0-12.0-0.1,"[1, 1, 0, 0, 0, 0, 0, 1, 1, 1, 0, 0, 1, 0, 0, 1, 0, 1, 0, 0, 1, 1, 0]",,"[819, 1128, 871, 681, 664, 673, 598, 611, 721, 952, 707, 780, 713, 589, 627, 564, 575, 617, 1318, 1344, 504, 1607, 853]",,264618,21,maze,"['Once', 'at', 'the', 'address', 'he', 'found', 'a', 'house', 'which', 'had', 'an', 'ornate', 'fountain', 'in', 'its', 'garden', 'and', 'a', 'house', 'covered', 'in', 'fine', 'carvings.']",
938,1,"[1, 1, 1, 1, 1, 1, 1, 1, 1, 1, 1, 1, 1, 1]","[506, 599, 878, 576, 538, 699, 517, 933, 1135, 1850, 536, 661, 736, 764]","['x-x-x', 'yet', 'insulation', 'draw', 'maybe', 'pick', 'via', 'marathons', 'gay', 'deal', 'annual', 'fat', 'heard', 'our.']",0.0-12.0-0.2,"[1, 0, 0, 1, 0, 0, 1, 0, 0, 0, 1, 1, 1, 1]",,"[506, 599, 878, 576, 538, 699, 517, 933, 1135, 1850, 536, 661, 736, 764]",,275549,22,maze,"['The', 'man', 'demolished', 'the', 'house', 'with', 'the', 'bulldozer', 'but', 'it', ""wasn't"", 'the', 'right', 'one.']",
938,1,,,,0.0-13.0,,,,,276552,23,html-button-response,,
938,1,"[1, 1, 1, 1, 1, 1, 1, 1, 1, 1, 1, 1, 1, 1, 1, 1, 1]","[16419, 1914, 682, 573, 606, 594, 661, 1207, 573, 821, 546, 720, 540, 835, 619, 471, 426]","['x-x-x', 'contexts', 'gold', 'explain', 'pick', 'fans', 'sounds', 'attendees', 'won', 'surnames.', 'x-x-x', 'moment', 'fell', 'cell', 'wife', 'try', 'sake.']",0.0-14.0-0.0,"[0, 0, 0, 0, 0, 0, 1, 0, 0, 1, 0, 1, 0, 0, 0, 0, 1]",,"[16419, 1914, 682, 573, 606, 594, 661, 1207, 573, 821, 546, 720, 540, 835, 619, 471, 426]",,304761,24,maze,"['A', 'gardener', 'was', 'working', 'in', 'a', 'garden', 'adjusting', 'a', 'chainsaw.', 'He', 'needed', 'to', 'cut', 'down', 'a', 'tree.']",
938,1,"[1, 1, 1, 1, 1, 1, 1, 1, 1, 1, 1, 1, 1, 1, 0, 1, 1, 1, 1]","[481, 618, 780, 451, 490, 604, 1207, 540, 590, 1218, 583, 872, 631, 673, 1668, 729, 842, 838, 576]","['x-x-x', 'wall', 'networks', 'come', 'felt', 'adds', 'realize', 'need', 'isometry', 'easy', 'us', 'fees', 'aware', 'win', 'race', 'earn', 'pull', 'uses', 'cars.']",0.0-14.0-0.1,"[1, 0, 0, 1, 0, 1, 1, 0, 1, 1, 1, 1, 1, 0, 0, 1, 1, 1, 0]",,"[481, 618, 780, 451, 490, 604, 1207, 540, 590, 1218, 583, 872, 631, 673, 1124, 729, 842, 838, 576]",,319162,25,maze,"['He', 'was', 'standing', 'by', 'a', 'tree', 'covered', 'in', 'greenfly', 'and', 'a', 'tree', 'which', 'had', 'been', 'dead', 'a', 'long', 'time.']",
938,1,"[1, 1, 1, 1, 1, 1, 1, 1, 1, 1, 1, 1, 1, 1, 1]","[937, 582, 625, 599, 607, 737, 557, 555, 805, 643, 1627, 893, 546, 905, 636]","['x-x-x', 'authored', 'gold', 'pick', 'read', 'asks', 'draw', 'role', 'concedes', 'our', 'star', 'news', 'belt', 'click', 'seat.']",0.0-14.0-0.2,"[1, 0, 0, 0, 1, 1, 0, 1, 0, 1, 1, 1, 0, 0, 1]",,"[937, 582, 625, 599, 607, 737, 557, 555, 805, 643, 1627, 893, 546, 905, 636]",,330419,26,maze,"['The', 'gardener', 'cut', 'down', 'the', 'tree', 'with', 'the', 'chainsaw', 'but', 'was', 'very', 'sad', 'about', 'it.']",
938,1,,,,0.0-15.0,,,,,331421,27,html-button-response,,
938,1,"[1, 1, 1, 1, 1, 1, 1, 1, 1, 1, 1, 1, 1, 1, 1, 1, 1]","[1713, 2118, 784, 629, 724, 519, 845, 1156, 715, 1120, 578, 636, 1087, 568, 763, 758, 557]","['x-x-x', 'bloodshed', 'nice', 'streets', 'award', 'eyes', 'produces', 'patience', 'lose', 'repay.', 'x-x-x', 'move', 'park', 'link', 'ladder', 'bet', 'ages.']",0.0-16.0-0.0,"[0, 1, 1, 1, 1, 0, 0, 1, 0, 1, 0, 0, 0, 0, 0, 0, 0]",,"[1713, 2118, 784, 629, 724, 519, 845, 1156, 715, 1120, 578, 636, 1087, 568, 763, 758, 557]",,346696,28,maze,"['A', 'caretaker', 'was', 'walking', 'along', 'a', 'corridor', 'carrying', 'some', 'nails.', 'He’d', 'been', 'told', 'to', 'repair', 'a', 'door.']",
938,1,"[1, 1, 1, 1, 1, 1, 1, 1, 1, 1, 1, 1, 1, 1, 1, 1, 1, 1]","[545, 710, 797, 764, 726, 540, 594, 981, 860, 446, 487, 736, 969, 898, 529, 835, 1150, 650]","['x-x-x', 'lady', 'week', 'dies', 'wants', 'sick', 'card', 'knows', 'foods', 'lots', 'trip', 'sex', 'rule', 'talks', 'spend', 'daughter', 'ages', 'catholic.']",0.0-16.0-0.1,"[0, 0, 0, 0, 1, 0, 0, 0, 1, 0, 0, 1, 1, 0, 1, 0, 0, 1]",,"[545, 710, 797, 764, 726, 540, 594, 981, 860, 446, 487, 736, 969, 898, 529, 835, 1150, 650]",,359917,29,maze,"['He', 'saw', 'a', 'door', 'which', 'had', 'a', 'large', 'crack', 'in', 'it', 'and', 'a', 'door', 'which', ""wouldn't"", 'shut', 'properly.']",
938,1,"[1, 1, 1, 1, 1, 1, 1, 1, 1, 1, 1, 1, 1, 1]","[672, 494, 693, 541, 605, 525, 927, 572, 632, 568, 505, 586, 2812, 666]","['x-x-x', 'rescinded', 'infinity', 'sell', 'none', 'want', 'than', 'ought', 'yes', 'mean', 'fact', 'seem', 'ages', 'weird.']",0.0-16.0-0.2,"[1, 0, 0, 1, 1, 0, 1, 0, 0, 1, 0, 1, 1, 1]",,"[672, 494, 693, 541, 605, 525, 927, 572, 632, 568, 505, 586, 2812, 666]",,370720,30,maze,"['The', 'caretaker', 'repaired', 'the', 'door', 'with', 'the', 'crack', 'and', 'then', 'took', 'a', 'tea', 'break.']",
938,1,,,,0.0-17.0,,,,,371722,31,html-button-response,,
938,1,"[1, 1, 1, 1, 0, 1, 1, 1, 1, 1, 1, 1, 1, 1, 1, 1, 1]","[952, 1412, 1309, 751, 1661, 1125, 562, 676, 746, 870, 552, 803, 542, 663, 555, 520, 966]","['x-x-x', 'prices', 'purple', 'goal', 'met', 'anymore', 'save', 'missions', 'die', 'refinements.', 'x-x-x', 'gameplay', 'spot', 'bonuses', 'shut', 'users', 'streets.']",0.0-18.0-0.0,"[1, 1, 1, 1, 0, 1, 1, 0, 0, 1, 1, 0, 1, 0, 0, 0, 0]",,"[952, 1412, 1309, 751, 442, 1125, 562, 676, 746, 870, 552, 803, 542, 663, 555, 520, 966]",,386392,32,maze,"['A', 'doctor', 'walked', 'into', 'a', 'waiting', 'room', 'carrying', 'a', 'stethoscope.', 'He’d', 'arranged', 'to', 'examine', 'a', 'woman', 'patient.']",
938,1,"[1, 1, 1, 1, 1, 1, 1, 1, 1, 1, 1, 1, 1, 1, 1, 1, 1, 1, 1, 1, 1]","[527, 1186, 687, 533, 959, 561, 664, 1027, 593, 599, 830, 1253, 473, 700, 452, 426, 582, 565, 490, 990, 533]","['x-x-x', 'pick', 'noticed', 'gone', 'weird', 'pop', 'took', 'lives', 'our', 'sun', 'band', 'researchers', 'fans', 'why', 'teams', 'self', 'option', 'tour', 'cell', 'android', 'abbot.']",0.0-18.0-0.1,"[1, 1, 0, 0, 0, 1, 0, 0, 1, 0, 0, 1, 0, 1, 0, 1, 0, 1, 0, 1, 0]",,"[527, 1186, 687, 533, 959, 561, 664, 1027, 593, 599, 830, 1253, 473, 700, 452, 426, 582, 565, 490, 990, 533]",,401026,33,maze,"['In', 'the', 'waiting', 'room', 'there', 'was', 'a', 'woman', 'who', 'had', 'a', 'temperature', 'and', 'a', 'woman', 'who', 'seemed', 'to', 'have', 'stomach', 'pains.']",
938,1,"[1, 1, 1, 1, 1, 1, 1, 1, 1, 1, 1, 1]","[569, 500, 695, 689, 516, 491, 765, 1374, 603, 851, 633, 710]","['x-x-x', 'afford', 'feminism', 'ride', 'knows', 'push', 'does', 'enthusiasts', 'easy', 'yourself', 'east', 'sold.']",0.0-18.0-0.2,"[1, 0, 1, 1, 0, 1, 0, 0, 1, 0, 1, 1]",,"[569, 500, 695, 689, 516, 491, 765, 1374, 603, 851, 633, 710]",,409426,34,maze,"['The', 'doctor', 'examined', 'the', 'woman', 'with', 'the', 'temperature', 'but', ""couldn't"", 'help', 'her.']",
938,1,,,,0.0-19.0,,,,,410429,35,html-button-response,,
938,1,"[1, 1, 1, 1, 1, 1, 1, 1, 1, 1, 1, 1, 1, 1, 1, 1, 1, 1]","[1586, 581, 671, 650, 752, 744, 718, 589, 1203, 848, 1197, 510, 469, 509, 680, 524, 717, 549]","['x-x-x', 'prices', 'eyes', 'vitamins', 'lack', 'shut', 'updates', 'yes', 'flows', 'tasks.', 'x-x-x', 'stupid', 'cup', 'feet', 'met', 'exists', 'none', 'settle.']",0.0-20.0-0.0,"[0, 1, 0, 1, 1, 1, 1, 1, 0, 0, 1, 0, 0, 1, 1, 0, 0, 1]",,"[1586, 581, 671, 650, 752, 744, 718, 589, 1203, 848, 1197, 510, 469, 509, 680, 524, 717, 549]",,423931,36,maze,"['A', 'little', 'girl', 'borrowed', 'from', 'the', 'kitchen', 'a', 'bread', 'knife.', 'She', 'wanted', 'to', 'cut', 'an', 'orange', 'into', 'pieces.']",
938,1,"[1, 1, 1, 1, 1, 1, 1, 1, 1, 1, 1, 1, 1, 1, 1, 1, 1, 1, 1, 1, 1, 1]","[695, 845, 523, 1173, 881, 570, 631, 613, 573, 756, 769, 1224, 854, 628, 689, 537, 522, 805, 666, 522, 985, 754]","['x-x-x', 'worse', 'shut', 'guy', 'hates', 'fate', 'goal', 'senate', 'plans', 'mind', 'job', 'gets', 'argue', 'lire', 'cars', 'wait', 'renovate', 'goals', 'shop', 'plan', 'harm', 'saws.']",0.0-20.0-0.1,"[1, 1, 0, 0, 1, 1, 1, 0, 1, 1, 1, 0, 1, 0, 0, 1, 1, 1, 1, 0, 0, 1]",,"[695, 845, 523, 1173, 881, 570, 631, 613, 573, 756, 769, 1224, 854, 628, 689, 537, 522, 805, 666, 522, 985, 754]",,440152,37,maze,"['She', 'found', 'in', 'the', 'fruit', 'bowl', 'an', 'orange', 'which', 'had', 'a', 'very', 'thick', 'rind', 'and', 'an', 'orange', 'which', 'had', 'a', 'thin', 'rind.']",
938,1,"[1, 1, 1, 1, 1, 1, 1, 1, 1, 1, 1, 1, 1, 1, 1, 1]","[626, 978, 886, 704, 596, 562, 841, 791, 1133, 555, 891, 481, 525, 1755, 1949, 907]","['x-x-x', 'enough', 'shut', 'trump', 'hall', 'upon', 'trip', 'expect', 'hope', 'than', 'acres', 'lien', 'self', 'us', 'till', 'follows.']",0.0-20.0-0.2,"[1, 1, 1, 1, 1, 0, 0, 0, 0, 1, 0, 1, 0, 0, 0, 1]",,"[626, 978, 886, 704, 596, 562, 841, 791, 1133, 555, 891, 481, 525, 1755, 1949, 907]",,454337,38,maze,"['The', 'little', 'girl', 'tried', 'to', 'cut', 'the', 'orange', 'with', 'the', 'thick', 'rind', 'but', 'to', 'no', 'success.']",
938,1,,,,0.0-21.0,,,,,455339,39,html-button-response,,
938,1,"[1, 1, 1, 1, 1, 1, 1, 1, 1, 1, 1, 1, 1, 1, 1, 1, 1]","[2180, 906, 586, 1451, 636, 655, 937, 641, 573, 945, 568, 569, 543, 622, 860, 546, 541]","['x-x-x', 'pots', 'gold', 'took', 'thus', 'method', 'tons', 'teachers', 'rate', 'reap', 'earn.', 'x-x-x', 'door', 'foot', 'echinoderms', 'cup', 'sits.']",0.0-22.0-0.0,"[1, 1, 0, 1, 1, 1, 1, 0, 1, 1, 1, 0, 1, 0, 0, 0, 1]",,"[2180, 906, 586, 1451, 636, 655, 937, 641, 573, 945, 568, 569, 543, 622, 860, 546, 541]",,469102,40,maze,"['A', 'vet', 'went', 'into', 'an', 'animal', 'cage', 'carrying', 'a', 'dart', 'gun.', 'He', 'had', 'to', 'tranquilise', 'a', 'lion.']",
938,1,"[1, 1, 1, 1, 1, 1, 1, 1, 1, 1, 1, 1, 1, 1, 1, 1, 1, 1, 1, 1, 1, 0]","[594, 587, 1754, 661, 594, 511, 643, 528, 917, 550, 724, 831, 479, 552, 2266, 797, 535, 686, 691, 643, 550, 1483]","['x-x-x', 'girl', 'warn', 'guess', 'fan', 'die', 'aids', 'same', 'cash', 'job', 'gets', 'alma', 'holy', 'tax', 'sans', 'poor', 'income', 'rich', 'list', 'plat', 'drug', 'met.']",0.0-22.0-0.1,"[0, 1, 1, 0, 0, 0, 1, 0, 0, 0, 0, 1, 0, 1, 1, 1, 0, 0, 0, 1, 0, 0]",,"[594, 587, 1754, 661, 594, 511, 643, 528, 917, 550, 724, 831, 479, 552, 2266, 797, 535, 686, 691, 643, 550, 431]",,486682,41,maze,"['Inside', 'the', 'cage', 'there', 'was', 'a', 'lion', 'that', 'had', 'a', 'big', 'mane', 'and', 'a', 'puma', 'that', ""didn't"", 'have', 'any', 'mane', 'at', 'all.']",
938,1,"[1, 1, 1, 1, 1, 1, 1, 1, 1, 1, 1, 1, 1]","[841, 622, 584, 664, 473, 863, 553, 745, 567, 517, 633, 810, 537]","['x-x-x', 'slid', 'minesweeping', 'loss', 'ours', 'same', 'add', 'quo', 'hoc', 'year', 'term', 'premiums', 'gone.']",0.0-22.0-0.2,"[0, 0, 1, 1, 1, 1, 0, 0, 1, 0, 0, 0, 1]",,"[841, 622, 584, 664, 473, 863, 553, 745, 567, 517, 633, 810, 537]",,495095,42,maze,"['The', 'vet', 'tranquilised', 'the', 'lion', 'with', 'the', 'big', 'mane', 'and', 'then', 'examined', 'it.']",
938,1,,,,0.0-23.0,,,,,496098,43,html-button-response,,
938,1,"[1, 1, 1, 1, 1, 0, 1, 1, 1, 1, 1, 1, 1, 1, 1, 1, 1, 1, 1, 1, 1]","[6465, 1100, 776, 628, 562, 1420, 834, 459, 560, 696, 4687, 499, 563, 627, 507, 582, 496, 684, 604, 679, 584]","['x-x-x', 'fringes', 'ones', 'nations', 'sell', 'sold', 'frank', 'pain', 'lady', 'info', 'channels', 'yes', 'rates', 'vain.', 'x-x-x', 'sun', 'plus', 'olive', 'term', 'read', 'sake.']",0.0-24.0-0.0,"[0, 1, 0, 1, 1, 0, 1, 0, 1, 0, 0, 1, 0, 0, 1, 0, 0, 1, 1, 1, 1]",,"[6465, 1100, 776, 628, 562, 535, 834, 459, 560, 696, 4687, 499, 563, 627, 507, 582, 496, 684, 604, 679, 584]",,520118,44,maze,"['A', 'fireman', 'was', 'running', 'to', 'the', 'scene', 'of', 'a', 'fire', 'carrying', 'a', 'heavy', 'axe.', 'He', 'had', 'to', 'smash', 'down', 'a', 'door.']",
938,1,"[1, 1, 1, 1, 1, 1, 1, 1, 1, 1, 1, 1, 1, 1, 1, 1, 1, 1, 1, 1, 1, 1, 1, 1, 1, 0]","[473, 841, 661, 597, 728, 603, 516, 467, 712, 550, 755, 604, 764, 971, 555, 490, 427, 587, 786, 508, 493, 542, 557, 476, 869, 1311]","['x-x-x', 'lie', 'till', 'mark', 'week', 'ought', 'non', 'push', 'thus', 'ways', 'smart', 'send', 'ages', 'teams', 'mind', 'card', 'does', 'cites', 'lied', 'drug', 'tax', 'prices', 'rates', 'cash', 'cleric', 'sing.']",0.0-24.0-0.1,"[1, 0, 0, 1, 1, 0, 1, 0, 1, 0, 1, 1, 1, 1, 0, 1, 0, 1, 1, 1, 0, 1, 0, 1, 1, 0]",,"[473, 841, 661, 597, 728, 603, 516, 467, 712, 550, 755, 604, 764, 971, 555, 490, 427, 587, 786, 508, 493, 542, 557, 476, 869, 457]",,536972,45,maze,"['When', 'he', 'got', 'to', 'the', 'scene', 'of', 'the', 'fire', 'he', 'found', 'a', 'door', 'which', 'had', 'a', 'very', 'rusty', 'lock', 'and', 'a', 'door', 'which', 'was', 'nailed', 'shut.']",
938,1,"[1, 1, 1, 1, 1, 1, 1, 1, 1, 1, 1, 1, 1, 1]","[528, 527, 904, 552, 504, 545, 497, 605, 1449, 879, 703, 3156, 1081, 528]","['x-x-x', 'modeled', 'apostle', 'lack', 'send', 'none', 'hope', 'sell', 'align', 'vary', 'week', 'debut', 'concerto', 'girl.']",0.0-24.0-0.2,"[1, 1, 1, 0, 1, 0, 1, 1, 0, 1, 1, 1, 0, 1]",,"[528, 527, 904, 552, 504, 545, 497, 605, 1449, 879, 703, 3156, 1081, 528]",,549435,46,maze,"['The', 'fireman', 'smashed', 'down', 'the', 'door', 'with', 'the', 'heavy', 'axe', 'but', 'smoke', 'overcame', 'him.']",
938,1,,,,0.0-25.0,,,,,550437,47,html-button-response,,
938,1,"[1, 1, 1, 1, 1, 1, 1, 1, 1, 1, 1, 1, 1, 0, 1]","[819, 1276, 607, 1401, 600, 1024, 520, 453, 783, 459, 436, 1222, 663, 1374, 1101]","['x-x-x', 'raiders', 'ones', 'terminate', 'same', 'rioted', 'abuses.', 'x-x-x', 'guy', 'worry', 'sun', 'loud', 'lie', 'non', 'findings.']",0.0-26.0-0.0,"[1, 0, 1, 0, 0, 1, 0, 1, 0, 0, 0, 1, 1, 0, 1]",,"[819, 1276, 607, 1401, 600, 1024, 520, 453, 783, 459, 436, 1222, 663, 551, 1101]",,563184,48,maze,"['A', 'chemist', 'was', 'adjusting', 'a', 'bunsen', 'burner.', 'He', 'was', 'about', 'to', 'heat', 'up', 'a', 'solution.']",
938,1,"[1, 1, 1, 1, 1, 1, 1, 1, 1, 1, 1, 1, 1, 1, 1, 1, 1, 1, 1]","[633, 725, 1113, 745, 515, 555, 934, 459, 559, 477, 1039, 457, 584, 469, 576, 543, 650, 589, 630]","['x-x-x', 'ring', 'ought', 'worse', 'cat', 'die', 'diseases', 'lives', 'girl', 'kiss', 'robotics', 'sea', 'hurt', 'gay', 'army', 'granted', 'physicians', 'ride', 'pier.']",0.0-26.0-0.1,"[1, 0, 0, 0, 0, 1, 1, 0, 1, 0, 1, 0, 0, 0, 0, 1, 1, 0, 1]",,"[633, 725, 1113, 745, 515, 555, 934, 459, 559, 477, 1039, 457, 584, 469, 576, 543, 650, 589, 630]",,575440,49,maze,"['On', 'his', 'bench', 'there', 'was', 'a', 'solution', 'which', 'had', 'blue', 'crystals', 'in', 'it', 'and', 'a', 'powder', 'containing', 'red', 'dye.']",
938,1,"[0, 1, 1, 1, 1, 1, 1, 1, 1, 1, 1, 1, 1, 1]","[1293, 635, 670, 664, 625, 522, 622, 557, 551, 700, 589, 663, 696, 716]","['x-x-x', 'expands', 'brakes', 'gain', 'becoming', 'fear', 'park', 'haunts', 'weddings', 'fun', 'ride', 'mum', 'nice', 'mark.']",0.0-26.0-0.2,"[1, 1, 1, 1, 0, 1, 0, 1, 1, 1, 1, 0, 1, 0]",,"[505, 635, 670, 664, 625, 522, 622, 557, 551, 700, 589, 663, 696, 716]",,584948,50,maze,"['The', 'chemist', 'heated', 'the', 'solution', 'with', 'the', 'bunsen', 'burner', 'but', 'the', 'gas', 'went', 'out.']",
938,1,,,,0.0-27.0,,,,,585951,51,html-button-response,,
938,1,"[1, 1, 0, 1, 1, 1, 1, 1, 1, 1, 1, 1, 1, 1, 1, 1, 1, 1, 1]","[1455, 650, 1309, 794, 671, 661, 473, 599, 1575, 652, 479, 900, 643, 555, 624, 517, 1359, 457, 1014]","['x-x-x', 'rest', 'ice', 'regulators', 'pull', 'runs', 'slow', 'code', 'race', 'case', 'road', 'along', 'sells.', 'x-x-x', 'holiday', 'bus', 'chips', 'walk', 'hire.']",0.0-28.0-0.0,"[1, 1, 0, 0, 1, 0, 0, 0, 0, 1, 0, 0, 1, 1, 0, 1, 1, 0, 0]",,"[1455, 650, 484, 794, 671, 661, 473, 599, 1575, 652, 479, 900, 643, 555, 624, 517, 1359, 457, 1014]",,601347,52,maze,"['A', 'man', 'was', 'decorating', 'a', 'room', 'and', 'had', 'with', 'him', 'a', 'large', 'brush.', 'He’d', 'decided', 'to', 'paint', 'a', 'door.']",
938,1,"[1, 1, 1, 1, 1, 1, 1, 1, 1, 1, 1, 1, 1, 1, 0, 1, 1, 1, 1, 1]","[603, 553, 594, 629, 519, 408, 676, 607, 504, 529, 782, 668, 492, 613, 1357, 620, 777, 529, 528, 585]","['x-x-x', 'able', 'gave', 'proud', 'son', 'took', 'asks', 'terms', 'job', 'dog', 'knows', 'kings', 'days', 'talk', 'drug', 'army', 'agency', 'peace', 'election', 'aware.']",0.0-28.0-0.1,"[0, 0, 0, 0, 1, 0, 0, 0, 0, 1, 1, 0, 1, 1, 1, 1, 1, 0, 0, 0]",,"[603, 553, 594, 629, 519, 408, 676, 607, 504, 529, 782, 668, 492, 613, 509, 620, 777, 529, 528, 585]",,613927,53,maze,"['In', 'the', 'room', 'there', 'was', 'a', 'door', 'which', 'had', 'a', 'large', 'crack', 'in', 'it', 'and', 'a', 'window', 'which', ""wouldn't"", 'close.']",
938,1,"[1, 1, 1, 1, 1, 1, 1, 1, 1, 1, 1, 1, 1, 1, 1, 1]","[503, 744, 641, 487, 667, 599, 544, 715, 488, 608, 506, 610, 1887, 912, 499, 649]","['x-x-x', 'seen', 'weekend', 'tree', 'firms', 'bit', 'suck', 'fair', 'may', 'alone', 'forth', 'walk', 'code', 'won', 'ranked', 'union.']",0.0-28.0-0.2,"[1, 0, 1, 0, 1, 1, 0, 1, 0, 0, 1, 0, 0, 0, 1, 0]",,"[503, 744, 641, 487, 667, 599, 544, 715, 488, 608, 506, 610, 1887, 912, 499, 649]",,624991,54,maze,"['The', 'man', 'decided', 'to', 'paint', 'the', 'door', 'with', 'the', 'large', 'crack', 'and', 'do', 'the', 'window', 'later.']",
938,1,,,,0.0-29.0,,,,,625993,55,html-button-response,,
938,1,"[1, 1, 1, 1, 1, 1, 1, 1, 1, 1, 1, 1, 1, 1, 1, 1, 1]","[1924, 797, 633, 520, 806, 724, 829, 1292, 605, 813, 512, 646, 791, 494, 749, 454, 589]","['x-x-x', 'loans', 'text', 'anymore', 'learn', 'cup', 'option', 'funerals', 'list', 'deals', 'relate.', 'x-x-x', 'ford', 'trip', 'traverse', 'yes', 'decide.']",0.0-30.0-0.0,"[1, 0, 0, 1, 1, 0, 0, 0, 0, 0, 1, 1, 1, 0, 1, 0, 0]",,"[1924, 797, 633, 520, 806, 724, 829, 1292, 605, 813, 512, 646, 791, 494, 749, 454, 589]",,639175,56,maze,"['A', 'drunk', 'was', 'walking', 'along', 'a', 'street', 'wielding', 'an', 'empty', 'bottle.', 'He', 'felt', 'like', 'smashing', 'a', 'window.']",
938,1,"[1, 1, 1, 1, 1, 1, 1, 1, 1, 1, 1, 1, 1, 1, 1, 1, 1, 1, 1, 1, 1]","[565, 930, 1173, 820, 578, 973, 548, 484, 1203, 447, 1150, 558, 464, 503, 757, 1257, 957, 534, 781, 741, 503]","['x-x-x', 'shall', 'best', 'done', 'rate', 'wild', 'feel', 'abroad', 'self', 'risk', 'emerged', 'plays', 'list', 'gain', 'decide', 'fear', 'worst', 'fun', 'yoga', 'province', 'idea.']",0.0-30.0-0.1,"[1, 0, 1, 1, 0, 0, 0, 1, 0, 0, 0, 0, 0, 0, 1, 1, 1, 1, 0, 1, 0]",,"[565, 930, 1173, 820, 578, 973, 548, 484, 1203, 447, 1150, 558, 464, 503, 757, 1257, 957, 534, 781, 741, 503]",,655106,57,maze,"['In', 'front', 'of', 'him', 'he', 'saw', 'a', 'window', 'made', 'of', 'stained', 'glass', 'and', 'a', 'glass', 'door', 'which', 'had', 'bars', 'covering', 'it.']",
938,1,"[1, 1, 1, 1, 1, 1, 1, 1, 0, 1, 1, 1, 1]","[1222, 800, 536, 609, 758, 711, 477, 966, 1366, 823, 1107, 511, 739]","['x-x-x', 'apart', 'clarify', 'cost', 'indeed', 'sure', 'trip', 'define', 'useful', 'ask', 'linguists', 'rate', 'resource.']",0.0-30.0-0.2,"[0, 0, 1, 0, 0, 1, 0, 1, 0, 1, 1, 0, 1]",,"[1222, 800, 536, 609, 758, 711, 477, 966, 522, 823, 1107, 511, 739]",,665738,58,maze,"['The', 'drunk', 'smashed', 'the', 'window', 'with', 'the', 'stained', 'glass', 'and', 'staggered', 'off', 'laughing.']",
938,1,,,,0.0-31.0,,,,,666740,59,html-button-response,,
938,1,"[1, 1, 1, 1, 0, 1, 1, 1, 1, 1, 1, 1, 1, 1, 1, 1, 0, 1, 1, 1, 1, 1, 1, 1, 1]","[1081, 748, 546, 589, 1518, 767, 839, 987, 475, 646, 787, 481, 991, 669, 1111, 890, 1266, 705, 570, 778, 480, 1272, 620, 538, 703]","['x-x-x', 'drinks', 'guys', 'anymore', 'push', 'eat', 'apply', 'nations', 'non', 'goes', 'spite.', 'x-x-x', 'else', 'am', 'throws', 'symbolizing', 'lots', 'hill', 'wood', 'basis', 'same', 'sizes', 'gift', 'hear', 'beings.']",0.0-32.0-0.0,"[0, 0, 0, 1, 1, 1, 1, 0, 1, 0, 1, 1, 1, 0, 1, 1, 0, 0, 1, 0, 0, 0, 1, 0, 1]",,"[1081, 748, 546, 589, 695, 767, 839, 987, 475, 646, 787, 481, 991, 669, 1111, 890, 530, 705, 570, 778, 480, 1272, 620, 538, 703]",,686809,60,maze,"['An', 'artist', 'was', 'working', 'at', 'a', 'table', 'holding', 'a', 'long', 'brush.', 'He', 'had', 'a', 'sudden', 'premonition', 'that', 'he', 'was', 'going', 'to', 'knock', 'over', 'a', 'bottle.']",
938,1,"[1, 1, 1, 1, 1, 0, 1, 1, 1, 1, 1, 1, 1, 1, 1, 1]","[489, 1010, 582, 641, 753, 1198, 821, 871, 618, 518, 519, 633, 645, 888, 623, 715]","['x-x-x', 'bag', 'aware', 'sorry', 'okay', 'knew', 'abroad', 'interviews', 'bill', 'relax', 'ask', 'vote', 'blame', 'defend', 'move', 'agree.']",0.0-32.0-0.1,"[1, 1, 0, 1, 1, 1, 0, 1, 0, 1, 0, 0, 0, 0, 1, 1]",,"[489, 1010, 582, 641, 753, 497, 821, 871, 618, 518, 519, 633, 645, 888, 623, 715]",,698341,61,maze,"['On', 'the', 'table', 'there', 'was', 'a', 'bottle', 'containing', 'some', 'paint', 'and', 'a', 'bottle', 'filled', 'with', 'water.']",
938,1,"[1, 1, 1, 1, 1, 1, 1, 1, 1, 1, 1, 1, 1]","[548, 497, 697, 649, 552, 615, 756, 584, 561, 798, 674, 927, 702]","['x-x-x', 'anyway', 'barristers', 'verdict', 'mean', 'wish', 'depend', 'hear', 'knew', 'meets', 'wait', 'ethic', 'barrow.']",0.0-32.0-0.2,"[0, 1, 0, 0, 1, 1, 1, 0, 0, 1, 0, 1, 0]",,"[548, 497, 697, 649, 552, 615, 756, 584, 561, 798, 674, 927, 702]",,706907,62,maze,"['The', 'artist', 'accidently', 'knocked', 'over', 'the', 'bottle', 'with', 'the', 'paint', 'and', 'swore', 'loudly.']",
938,1,,,,0.0-33.0,,,,,707910,63,html-button-response,,
938,1,"[1, 1, 1, 1, 1, 1, 1, 1, 1, 1, 1, 1, 1, 1, 1, 0, 1, 1]","[720, 680, 694, 724, 891, 756, 501, 1185, 714, 884, 1937, 678, 576, 831, 584, 1902, 644, 1571]","['x-x-x', 'nets', 'loss', 'dollars', 'say', 'ran', 'applies', 'why', 'won', 'held', 'equip.', 'x-x-x', 'spot', 'nightmare', 'wall', 'skin', 'boy', 'fees.']",0.0-34.0-0.0,"[1, 1, 1, 1, 1, 0, 1, 0, 1, 0, 0, 0, 1, 0, 1, 1, 0, 1]",,"[720, 680, 694, 724, 891, 756, 501, 1185, 714, 884, 1937, 678, 576, 831, 584, 1125, 644, 1571]",,724386,64,maze,"['A', 'chef', 'was', 'working', 'in', 'his', 'kitchen', 'by', 'a', 'food', 'mixer.', 'He', 'was', 'preparing', 'to', 'make', 'a', 'cake.']",
938,1,"[1, 1, 1, 1, 1, 1, 1, 1, 1, 1, 1, 1, 1, 1, 1, 1, 1, 1, 1, 1, 1]","[858, 814, 485, 500, 824, 445, 838, 691, 504, 532, 623, 745, 1031, 1188, 596, 649, 711, 874, 1422, 595, 601]","['x-x-x', 'wall', 'took', 'kept', 'reached', 'son', 'basis', 'rose', 'size', 'null', 'win', 'cops', 'conclusion', 'audit', 'tweet', 'role', 'west', 'rely', 'impose', 'sort', 'est.']",0.0-34.0-0.1,"[1, 0, 0, 0, 0, 1, 1, 1, 1, 0, 0, 1, 1, 0, 1, 1, 1, 0, 0, 1, 0]",,"[858, 814, 485, 500, 824, 445, 838, 691, 504, 532, 623, 745, 1031, 1188, 596, 649, 711, 874, 1422, 595, 601]",,739917,65,maze,"['Somebody', 'came', 'into', 'the', 'kitchen', 'and', 'asked', 'him', 'to', 'bake', 'a', 'cake', 'containing', 'dried', 'fruit', 'and', 'a', 'pie', 'topped', 'with', 'jam.']",
938,1,"[1, 1, 1, 1, 1, 1, 1, 1, 1, 1, 1, 1, 1, 1, 1, 1]","[602, 716, 648, 501, 615, 571, 839, 486, 661, 1721, 663, 544, 557, 563, 531, 711]","['x-x-x', 'spam', 'dollars', 'sign', 'cell', 'west', 'ours', 'role', 'ran', 'peer', 'wards', 'war', 'inch', 'give', 'tell', 'grew.']",0.0-34.0-0.2,"[0, 0, 1, 0, 0, 1, 1, 0, 0, 0, 1, 0, 0, 1, 1, 1]",,"[602, 716, 648, 501, 615, 571, 839, 486, 661, 1721, 663, 544, 557, 563, 531, 711]",,750850,66,maze,"['The', 'chef', 'started', 'to', 'make', 'the', 'cake', 'with', 'the', 'food', 'mixer', 'but', 'ran', 'out', 'of', 'eggs.']",
938,1,,,,0.0-35.0,,,,,751853,67,html-button-response,,
938,1,,,,0.0-36.0,,"{'other': '', 'errors': '', 'length': '', 'strange': '', 'understand': '', 'what-about': ''}",9115,,760975,68,survey-text,,
938,1,,,,0.0-37.0,,0,1254,<h2>Many thanks for participating!</h2><p>We are interested in how people integrate the words they read into the context of the sentence so far.<h1>Press continue to be redirected to Prolific. </h1>,762230,69,html-button-response,,
936,1,,,,0.0-0.0,,0,1486," <center><img width=""300px"" src=""assets/stanford.png"" /></center><div id=""legal""></br>By answering the following questions, you are participating in a study being performed by cognitive scientists in the Stanford Department of Psychology. If you have questions about this research, please contact us at  <a href=""mailto://languagecoglab@gmail.com.""> languagecoglab@gmail.com</a>.You must be at least 18 years old to participate. Your participation in this research is voluntary. You may decline to answer any or all of the following questions. You may decline further participation, at any time, without adverse consequences. Your anonymity is assured; the researchers who have requested your participation will not receive any personal information about you. </div></br>",1496,0,html-button-response,,
936,1,,,,0.0-1.0,,0,875,"<h3>Please read these instructions carefully!</h3> </br><p>For this experiment, please place your <b>left index finger on the 'e' key</b> and your <b>right index finger on the 'i' key</b>.</p><p> You will read sentences word by word. However, you will have to guess which word comes next.On each screen you will see two options: one will be the next word in the sentence, and one will not. </p><p><b>Select the word that continues the sentence by pressing 'e' (left-hand) for the word on the left or pressing 'i' (right-hand) for the word on the right.</b></p><p>Select the best word as quickly as you can, but without making too many errors. </p><div><p>Click ""Continue"" to try this on a practice sentence.</p></div>",2372,1,html-button-response,,
936,1,"[0, 1, 1, 1, 1, 1, 1, 1, 1, 1, 1, 1, 1, 1]","[2446, 549, 471, 420, 615, 594, 746, 498, 492, 468, 517, 458, 432, 498]","['x-x-x', 'whom', 'knew', 'appeared', 'emotions', 'know', 'dad', 'lake', 'edition', 'jack', 'fans', 'fund', 'grow', 'died.']",0.0-2.0,"[1, 1, 1, 0, 1, 0, 1, 1, 1, 0, 1, 1, 0, 1]",,"[1326, 549, 471, 420, 615, 594, 746, 498, 492, 468, 517, 458, 432, 498]",,11587,2,maze,"['This', 'is', 'a', 'practice', 'sentence', 'that', 'you', 'are', 'reading', 'one', 'word', 'at', 'a', 'time.']",
936,1,,,,0.0-3.0,,0,1485,"<h3>Please read these instructions carefully!</h3> </br><p>Great job! Now you are ready for the main experiment.</p><p> You will now read 16 short stories in the same word-by-word way.</p><div><p>Click ""Continue"" to start the experiment.</p>",13073,3,html-button-response,,
936,1,"[1, 1, 1, 1, 1, 0, 1, 1, 1, 1, 1, 1, 1, 1, 1, 1, 1, 1]","[580, 1065, 454, 448, 466, 1390, 563, 526, 439, 543, 575, 550, 593, 678, 490, 540, 519, 483]","['x-x-x', 'brothels', 'lots', 'deserve', 'apply', 'grow', 'option', 'nonsense', 'kill', 'shall', 'kings.', 'x-x-x', 'lot', 'memories', 'am', 'unless', 'want', 'instances.']",0.0-4.0-0.0,"[0, 0, 0, 0, 0, 1, 0, 0, 0, 1, 0, 1, 1, 1, 1, 1, 1, 1]",,"[580, 1065, 454, 448, 466, 534, 563, 526, 439, 543, 575, 550, 593, 678, 490, 540, 519, 483]",,23980,4,maze,"['A', 'skinhead', 'was', 'walking', 'along', 'a', 'street', 'carrying', 'a', 'large', 'knife.', 'He', 'was', 'planning', 'to', 'attack', 'a', 'policeman.']",
936,1,"[1, 1, 1, 1, 1, 1, 1, 1, 1, 1, 1, 1, 1, 1, 1, 1, 1, 1]","[524, 585, 563, 503, 818, 495, 481, 491, 455, 574, 508, 617, 466, 430, 559, 856, 774, 635]","['x-x-x', 'girlfriend', 'wild', 'feel', 'terminals', 'holy', 'lake', 'page', 'users', 'jays', 'kids', 'meet', 'born', 'buy', 'deal', 'enrolment', 'nations', 'observable.']",0.0-4.0-0.1,"[1, 0, 1, 0, 1, 1, 1, 0, 0, 1, 1, 0, 0, 0, 1, 1, 0, 0]",,"[524, 585, 563, 503, 818, 495, 481, 491, 455, 574, 508, 617, 466, 430, 559, 856, 774, 635]",,34318,5,maze,"['He', 'eventually', 'saw', 'a', 'policeman', 'who', 'had', 'a', 'large', 'scar', 'on', 'his', 'face', 'and', 'a', 'policewoman', 'wearing', 'spectacles.']",
936,1,"[1, 1, 1, 1, 1, 1, 1, 1, 1, 1, 1, 1, 1]","[730, 493, 527, 611, 588, 450, 411, 377, 465, 499, 482, 506, 659]","['x-x-x', 'imitated', 'grateful', 'provider', 'want', 'comprises', 'date', 'grow', 'owns', 'lots', 'mean', 'sake', 'sold.']",0.0-4.0-0.2,"[1, 0, 1, 0, 1, 0, 0, 0, 1, 1, 1, 0, 1]",,"[730, 493, 527, 611, 588, 450, 411, 377, 465, 499, 482, 506, 659]",,41119,6,maze,"['The', 'skinhead', 'suddenly', 'attacked', 'the', 'policeman', 'with', 'the', 'knife', 'and', 'then', 'ran', 'off.']",
936,1,,,,0.0-5.0,,,,,42121,7,html-button-response,,
936,1,"[1, 1, 1, 1, 1, 1, 1, 1, 1, 1, 1, 1, 1, 1, 1, 1, 1, 1, 1, 1, 1, 1, 1]","[558, 550, 440, 427, 493, 1206, 645, 610, 458, 461, 479, 671, 743, 494, 423, 390, 399, 431, 792, 391, 513, 399, 489]","['x-x-x', 'batters', 'join', 'videos', 'goal', 'types', 'rose', 'died', 'terms', 'male', 'firm', 'size', 'writes', 'suck', 'wind', 'skin', 'thus.', 'x-x-x', 'happen', 'foot', 'upon', 'lie', 'tend.']",0.0-6.0-0.0,"[0, 0, 0, 0, 1, 1, 0, 1, 0, 0, 0, 1, 1, 0, 0, 0, 0, 0, 1, 0, 0, 0, 0]",,"[558, 550, 440, 427, 493, 1206, 645, 610, 458, 461, 479, 671, 743, 494, 423, 390, 399, 431, 792, 391, 513, 399, 489]",,54586,8,maze,"['A', 'burglar', 'was', 'trying', 'to', 'break', 'into', 'a', 'house', 'and', 'had', 'a', 'credit', 'card', 'in', 'his', 'hand.', 'He', 'wanted', 'to', 'open', 'a', 'door.']",
936,1,"[1, 1, 1, 1, 1, 1, 1, 1, 1, 1, 1, 1, 1, 1, 1, 1, 0]","[452, 590, 556, 509, 491, 399, 588, 529, 623, 420, 490, 479, 383, 397, 398, 505, 1398]","['x-x-x', 'queen', 'draw', 'onto', 'stars', 'fat', 'dog', 'assert', 'tons', 'poor', 'boys', 'movies', 'weird', 'gay', 'race', 'propose', 'gifts.']",0.0-6.0-0.1,"[0, 1, 1, 1, 0, 0, 1, 0, 0, 0, 1, 0, 0, 0, 0, 0, 0]",,"[452, 590, 556, 509, 491, 399, 588, 529, 623, 420, 490, 479, 383, 397, 398, 505, 554]",,63838,9,maze,"['He', 'found', 'a', 'door', 'which', 'had', 'a', 'faulty', 'lock', 'and', 'a', 'door', 'which', 'had', 'a', 'cracked', 'frame.']",
936,1,"[1, 1, 1, 1, 1, 1, 1, 1, 0, 1, 1, 1, 1]","[436, 413, 503, 380, 418, 775, 401, 626, 1446, 588, 676, 606, 580]","['x-x-x', 'expands', 'silver', 'drop', 'thus', 'male', 'site', 'relies', 'tend', 'sea', 'affairs', 'honesty', 'degree.']",0.0-6.0-0.2,"[0, 0, 0, 0, 0, 1, 0, 1, 0, 1, 0, 0, 1]",,"[436, 413, 503, 380, 418, 775, 401, 626, 458, 588, 676, 606, 580]",,71691,10,maze,"['The', 'burglar', 'opened', 'the', 'door', 'with', 'the', 'credit', 'card', 'and', 'quickly', 'slipped', 'inside.']",
936,1,,,,0.0-7.0,,,,,72730,11,html-button-response,,
936,1,"[0, 1, 1, 1, 1, 0, 1, 1, 1, 1, 1, 1, 1, 0, 1, 1, 1, 1, 1]","[1295, 533, 560, 605, 438, 1386, 491, 390, 459, 607, 565, 400, 365, 1439, 595, 523, 442, 596, 650]","['x-x-x', 'aftermath', 'luck', 'dollars', 'al', 'hurt', 'Happens', 'Forget', 'require', 'lose', 'dermatitis', 'ideas.', 'x-x-x', 'odds', 'idea', 'hate', 'miles', 'bet', 'suck.']",0.0-8.0-0.0,"[1, 1, 1, 1, 0, 1, 1, 0, 0, 1, 0, 0, 0, 0, 1, 1, 0, 1, 1]",,"[459, 533, 560, 605, 438, 537, 491, 390, 459, 607, 565, 400, 365, 607, 595, 523, 442, 596, 650]",,85077,12,maze,"['A', 'historian', 'was', 'working', 'in', 'the', 'British', 'Museum', 'holding', 'a', 'magnifying', 'glass.', 'He’d', 'sat', 'down', 'to', 'study', 'a', 'map.']",
936,1,"[1, 1, 1, 1, 1, 1, 1, 1, 1, 1, 1, 1, 1, 1, 1, 1, 1, 1, 1, 1]","[453, 596, 579, 478, 567, 431, 586, 541, 554, 468, 715, 566, 378, 660, 575, 759, 729, 506, 483, 636]","['x-x-x', 'dad', 'tons', 'queen', 'soul', 'knew', 'whom', 'goals', 'mom', 'vote', 'cosmetics', 'pigs', 'kids', 'pro', 'investing', 'trump', 'salary', 'girl', 'happens', 'employees.']",0.0-8.0-0.1,"[0, 1, 1, 0, 1, 0, 1, 0, 1, 0, 1, 0, 0, 1, 0, 1, 1, 0, 0, 1]",,"[453, 596, 579, 478, 567, 431, 586, 541, 554, 468, 715, 566, 378, 660, 575, 759, 729, 506, 483, 636]",,96343,13,maze,"['On', 'his', 'desk', 'there', 'was', 'a', 'map', 'which', 'had', 'an', 'appalling', 'tear', 'and', 'a', 'map', 'which', 'seemed', 'in', 'perfect', 'condition.']",
936,1,"[1, 1, 1, 1, 1, 1, 1, 1, 0, 1, 1, 1, 1, 1, 1, 1]","[601, 758, 524, 586, 879, 505, 593, 582, 1350, 653, 499, 525, 506, 521, 758, 481]","['x-x-x', 'adulthood', 'kids', 'oh', 'china', 'door', 'bye', 'wait', 'eat', 'reimbursed', 'whom', 'mom', 'card', 'rise', 'types', 'bill.']",0.0-8.0-0.2,"[1, 1, 1, 1, 1, 1, 1, 1, 0, 1, 1, 1, 0, 1, 1, 0]",,"[601, 758, 524, 586, 879, 505, 593, 582, 427, 653, 499, 525, 506, 521, 758, 481]",,106666,14,maze,"['The', 'historian', 'had', 'to', 'study', 'the', 'map', 'with', 'the', 'appalling', 'tear', 'so', 'as', 'to', 'value', 'it.']",
936,1,,,,0.0-9.0,,,,,107667,15,html-button-response,,
936,1,"[1, 1, 1, 1, 1, 1, 1, 1, 1, 1, 1, 1, 1, 1, 1, 1, 1, 1, 1, 0, 1]","[831, 639, 405, 429, 593, 511, 564, 569, 400, 449, 451, 507, 429, 668, 436, 813, 600, 500, 382, 1363, 601]","['x-x-x', 'defections', 'fear', 'percent', 'buy', 'guy', 'yards', 'teams', 'hurt', 'deny', 'ways', 'inspires.', 'x-x-x', 'lot', 'card', 'lady', 'born', 'tomorrow', 'ask', 'died', 'relates.']",0.0-10.0-0.0,"[1, 0, 0, 0, 1, 1, 1, 0, 0, 0, 1, 0, 0, 1, 1, 1, 1, 0, 0, 1, 0]",,"[831, 639, 405, 429, 593, 511, 564, 569, 400, 449, 451, 507, 429, 668, 436, 813, 600, 500, 382, 496, 601]",,119811,16,maze,"['A', 'dressmaker', 'was', 'working', 'on', 'a', 'dress', 'using', 'a', 'pair', 'of', 'scissors.', 'She', 'had', 'to', 'cut', 'some', 'material', 'for', 'the', 'pockets.']",
936,1,"[1, 1, 1, 1, 1, 1, 1, 1, 1, 1, 1, 1, 1, 1, 1, 1, 1, 1, 1, 1]","[398, 624, 499, 511, 379, 779, 573, 442, 585, 764, 447, 395, 556, 479, 438, 395, 388, 533, 600, 770]","['x-x-x', 'fact', 'lake', 'shall', 'cold', 'universe', 'users', 'cash', 'spot', 'embassy', 'boys', 'want', 'jobs', 'rule', 'taxes', 'kids', 'outcome', 'rates', 'buy', 'quest.']",0.0-10.0-0.1,"[0, 1, 1, 0, 0, 1, 1, 0, 1, 1, 0, 0, 1, 0, 0, 0, 0, 1, 0, 1]",,"[398, 624, 499, 511, 379, 779, 573, 442, 585, 764, 447, 395, 556, 479, 438, 395, 388, 533, 600, 770]",,130368,17,maze,"['She', 'had', 'a', 'piece', 'of', 'material', 'which', 'had', 'a', 'pattern', 'on', 'it', 'and', 'a', 'piece', 'of', 'material', 'which', 'was', 'plain.']",
936,1,"[1, 1, 0, 1, 1, 1, 1, 1, 1, 1, 1, 1, 1, 1]","[888, 614, 1510, 384, 459, 385, 401, 865, 419, 448, 665, 391, 565, 621]","['x-x-x', 'locomotion', 'cool', 'ask', 'enjoying', 'sure', 'bet', 'educate', 'town', 'born', 'boys', 'date', 'plus', 'robin.']",0.0-10.0-0.2,"[1, 0, 0, 0, 0, 0, 0, 1, 0, 0, 1, 0, 0, 1]",,"[888, 614, 647, 384, 459, 385, 401, 865, 419, 448, 665, 391, 565, 621]",,139028,18,maze,"['The', 'dressmaker', 'cut', 'the', 'material', 'with', 'the', 'pattern', 'and', 'then', 'went', 'to', 'have', 'lunch.']",
936,1,,,,0.0-11.0,,,,,140029,19,html-button-response,,
936,1,"[1, 1, 1, 1, 1, 1, 1, 1, 1, 1, 1, 1, 1, 1, 1, 1, 1, 1]","[584, 462, 604, 527, 393, 504, 608, 409, 913, 598, 448, 462, 537, 681, 515, 451, 380, 544]","['x-x-x', 'nets', 'loss', 'dollars', 'say', 'ran', 'applies', 'why', 'won', 'held', 'equip.', 'x-x-x', 'spot', 'nightmare', 'wall', 'skin', 'boy', 'fees.']",0.0-12.0-0.0,"[0, 0, 1, 0, 0, 1, 1, 1, 1, 1, 1, 1, 1, 1, 0, 0, 0, 1]",,"[584, 462, 604, 527, 393, 504, 608, 409, 913, 598, 448, 462, 537, 681, 515, 451, 380, 544]",,149652,20,maze,"['A', 'chef', 'was', 'working', 'in', 'his', 'kitchen', 'by', 'a', 'food', 'mixer.', 'He', 'was', 'preparing', 'to', 'make', 'a', 'cake.']",
936,1,"[1, 0, 1, 1, 1, 0, 1, 1, 1, 1, 1, 1, 1, 1, 1, 1, 1, 1, 0, 1, 1]","[633, 1276, 541, 540, 453, 1293, 499, 368, 476, 564, 410, 387, 516, 564, 420, 555, 455, 500, 1272, 598, 511]","['x-x-x', 'wall', 'took', 'kept', 'reached', 'son', 'basis', 'rose', 'size', 'null', 'win', 'cops', 'conclusion', 'audit', 'tweet', 'role', 'west', 'rely', 'impose', 'sort', 'est.']",0.0-12.0-0.1,"[0, 1, 0, 1, 0, 1, 0, 0, 1, 0, 0, 0, 0, 1, 0, 1, 0, 0, 1, 1, 1]",,"[633, 441, 541, 540, 453, 479, 499, 368, 476, 564, 410, 387, 516, 564, 420, 555, 455, 500, 420, 598, 511]",,162485,21,maze,"['Somebody', 'came', 'into', 'the', 'kitchen', 'and', 'asked', 'him', 'to', 'bake', 'a', 'cake', 'containing', 'dried', 'fruit', 'and', 'a', 'pie', 'topped', 'with', 'jam.']",
936,1,"[1, 1, 1, 1, 1, 1, 1, 1, 0, 1, 1, 1, 1, 1, 1, 0]","[593, 596, 421, 693, 577, 586, 537, 387, 1202, 562, 409, 415, 619, 579, 511, 1298]","['x-x-x', 'spam', 'dollars', 'sign', 'cell', 'west', 'ours', 'role', 'ran', 'peer', 'wards', 'war', 'inch', 'give', 'tell', 'grew.']",0.0-12.0-0.2,"[1, 0, 0, 1, 0, 1, 0, 0, 1, 1, 1, 1, 0, 1, 0, 1]",,"[593, 596, 421, 693, 577, 586, 537, 387, 406, 562, 409, 415, 619, 579, 511, 473]",,172474,22,maze,"['The', 'chef', 'started', 'to', 'make', 'the', 'cake', 'with', 'the', 'food', 'mixer', 'but', 'ran', 'out', 'of', 'eggs.']",
936,1,,,,0.0-13.0,,,,,173476,23,html-button-response,,
936,1,"[1, 1, 1, 1, 1, 1, 1, 1, 1, 1, 1, 1, 1, 1, 1]","[455, 811, 605, 644, 462, 1140, 424, 571, 580, 523, 462, 798, 549, 414, 570]","['x-x-x', 'raiders', 'ones', 'terminate', 'same', 'rioted', 'abuses.', 'x-x-x', 'guy', 'worry', 'sun', 'loud', 'lie', 'non', 'findings.']",0.0-14.0-0.0,"[0, 1, 1, 0, 0, 1, 1, 0, 1, 0, 1, 1, 0, 0, 0]",,"[455, 811, 605, 644, 462, 1140, 424, 571, 580, 523, 462, 798, 549, 414, 570]",,182486,24,maze,"['A', 'chemist', 'was', 'adjusting', 'a', 'bunsen', 'burner.', 'He', 'was', 'about', 'to', 'heat', 'up', 'a', 'solution.']",
936,1,"[1, 1, 1, 1, 1, 1, 0, 1, 1, 1, 1, 1, 1, 0, 1, 1, 1, 1, 1]","[527, 445, 652, 1011, 492, 494, 1460, 586, 539, 701, 644, 506, 458, 1489, 626, 545, 584, 406, 498]","['x-x-x', 'ring', 'ought', 'worse', 'cat', 'die', 'diseases', 'lives', 'girl', 'kiss', 'robotics', 'sea', 'hurt', 'gay', 'army', 'granted', 'physicians', 'ride', 'pier.']",0.0-14.0-0.1,"[1, 0, 1, 1, 1, 1, 0, 0, 1, 1, 1, 0, 0, 1, 1, 0, 0, 0, 0]",,"[527, 445, 652, 1011, 492, 494, 595, 586, 539, 701, 644, 506, 458, 674, 626, 545, 584, 406, 498]",,195154,25,maze,"['On', 'his', 'bench', 'there', 'was', 'a', 'solution', 'which', 'had', 'blue', 'crystals', 'in', 'it', 'and', 'a', 'powder', 'containing', 'red', 'dye.']",
936,1,"[1, 1, 1, 1, 1, 1, 1, 1, 1, 1, 1, 1, 1, 1]","[528, 526, 673, 420, 893, 475, 487, 460, 686, 607, 625, 716, 797, 599]","['x-x-x', 'expands', 'brakes', 'gain', 'becoming', 'fear', 'park', 'haunts', 'weddings', 'fun', 'ride', 'mum', 'nice', 'mark.']",0.0-14.0-0.2,"[1, 0, 0, 0, 1, 1, 0, 0, 1, 0, 1, 1, 1, 1]",,"[528, 526, 673, 420, 893, 475, 487, 460, 686, 607, 625, 716, 797, 599]",,203650,26,maze,"['The', 'chemist', 'heated', 'the', 'solution', 'with', 'the', 'blue', 'crystals', 'but', 'the', 'gas', 'went', 'out.']",
936,1,,,,0.0-15.0,,,,,204696,27,html-button-response,,
936,1,"[1, 1, 1, 1, 1, 1, 1, 1, 1, 1, 1, 1, 0, 1, 1, 0, 1]","[432, 1223, 612, 826, 572, 521, 670, 1705, 560, 625, 755, 413, 1669, 654, 578, 1671, 528]","['x-x-x', 'pots', 'gold', 'took', 'thus', 'method', 'tons', 'teachers', 'rate', 'reap', 'earn.', 'x-x-x', 'door', 'foot', 'echinoderms', 'cup', 'sits.']",0.0-16.0-0.0,"[0, 1, 0, 1, 0, 0, 1, 1, 1, 1, 0, 0, 1, 0, 0, 1, 0]",,"[432, 1223, 612, 826, 572, 521, 670, 1705, 560, 625, 755, 413, 783, 654, 578, 543, 528]",,218713,28,maze,"['A', 'vet', 'went', 'into', 'an', 'animal', 'cage', 'carrying', 'a', 'dart', 'gun.', 'He', 'had', 'to', 'tranquilise', 'a', 'lion.']",
936,1,"[1, 1, 0, 1, 1, 1, 1, 1, 1, 1, 1, 1, 1, 1, 1, 1, 1, 1, 1, 1, 1, 1]","[617, 966, 1621, 590, 1236, 474, 448, 391, 600, 419, 635, 952, 483, 618, 457, 418, 571, 557, 448, 532, 547, 718]","['x-x-x', 'girl', 'warn', 'guess', 'fan', 'die', 'aids', 'same', 'cash', 'job', 'gets', 'alma', 'holy', 'tax', 'sans', 'poor', 'income', 'rich', 'list', 'plat', 'drug', 'met.']",0.0-16.0-0.1,"[1, 1, 0, 0, 1, 0, 0, 0, 1, 1, 0, 1, 0, 1, 0, 0, 1, 0, 0, 0, 1, 1]",,"[617, 966, 776, 590, 1236, 474, 448, 391, 600, 419, 635, 952, 483, 618, 457, 418, 571, 557, 448, 532, 547, 718]",,233016,29,maze,"['Inside', 'the', 'cage', 'there', 'was', 'a', 'lion', 'that', 'had', 'a', 'big', 'mane', 'and', 'a', 'lion', 'that', ""didn't"", 'have', 'any', 'mane', 'at', 'all.']",
936,1,"[1, 1, 1, 1, 1, 1, 1, 1, 1, 1, 1, 1, 1]","[591, 1349, 1295, 510, 700, 521, 564, 601, 407, 424, 1563, 1305, 623]","['x-x-x', 'slid', 'minesweeping', 'loss', 'ours', 'same', 'add', 'quo', 'hoc', 'year', 'term', 'premiums', 'gone.']",0.0-16.0-0.2,"[0, 0, 0, 0, 0, 0, 1, 0, 0, 0, 0, 1, 1]",,"[591, 1349, 1295, 510, 700, 521, 564, 601, 407, 424, 1563, 1305, 623]",,243471,30,maze,"['The', 'vet', 'tranquilised', 'the', 'lion', 'with', 'the', 'big', 'mane', 'and', 'then', 'examined', 'it.']",
936,1,,,,0.0-17.0,,,,,244473,31,html-button-response,,
936,1,"[1, 1, 1, 1, 1, 1, 1, 0, 1, 1, 1, 0, 1, 1, 1, 1, 1]","[484, 1465, 718, 579, 1465, 499, 469, 1441, 509, 466, 492, 7672, 556, 722, 489, 555, 551]","['x-x-x', 'photos', 'hottest', 'luck', 'defenses', 'know', 'aliens', 'omissions', 'wish', 'elect.', 'x-x-x', 'body', 'coast', 'link', 'cubs', 'ring', 'courts.']",0.0-18.0-0.0,"[0, 1, 1, 0, 0, 0, 0, 1, 0, 0, 0, 1, 1, 0, 0, 1, 0]",,"[484, 1465, 718, 579, 1465, 499, 469, 595, 509, 466, 492, 443, 556, 722, 489, 555, 551]",,263612,32,maze,"['A', 'window', 'cleaner', 'was', 'climbing', 'his', 'ladder', 'clutching', 'a', 'cloth.', 'He’d', 'been', 'asked', 'to', 'wipe', 'a', 'window.']",
936,1,"[1, 0, 1, 0, 1, 0, 1, 1, 0, 1, 1, 1, 0, 1, 1, 1, 1, 1, 1, 1, 1, 1, 1, 1, 1, 1]","[666, 1430, 6569, 1550, 487, 4986, 659, 498, 4743, 613, 682, 509, 1227, 466, 492, 509, 544, 418, 471, 387, 608, 512, 421, 753, 581, 572]","['x-x-x', 'fact', 'god', 'termed', 'mind', 'mid', 'week', 'worry', 'page', 'says', 'awards', 'apply', 'mom', 'know', 'else', 'van', 'euro', 'gift', 'sold', 'male', 'pro', 'accords', 'rates', 'cash', 'statistics', 'agree.']",0.0-18.0-0.1,"[1, 0, 0, 1, 1, 0, 0, 0, 1, 1, 1, 0, 1, 0, 0, 1, 1, 1, 0, 0, 1, 0, 0, 1, 0, 1]",,"[666, 506, 6569, 708, 487, 520, 659, 498, 586, 613, 682, 509, 385, 466, 492, 509, 544, 418, 471, 387, 608, 512, 421, 753, 581, 572]",,294974,33,maze,"['Once', 'up', 'the', 'ladder', 'he', 'saw', 'that', 'there', 'was', 'a', 'window', 'which', 'had', 'a', 'lot', 'of', 'dirt', 'on', 'it', 'and', 'a', 'skylight', 'which', 'was', 'relatively', 'clean.']",
936,1,"[1, 1, 1, 1, 1, 1, 1, 1, 1, 1, 1, 1, 1]","[445, 565, 499, 421, 512, 497, 529, 633, 436, 553, 541, 431, 631]","['x-x-x', 'afford', 'insulin', 'pence', 'gift', 'belong', 'hope', 'wish', 'seeks', 'worry', 'deserve', 'kill', 'percent.']",0.0-18.0-0.2,"[0, 1, 0, 0, 1, 0, 1, 1, 0, 1, 0, 0, 1]",,"[445, 565, 499, 421, 512, 497, 529, 633, 436, 553, 541, 431, 631]",,301669,34,maze,"['The', 'window', 'cleaner', 'wiped', 'the', 'window', 'with', 'the', 'cloth', 'while', 'singing', 'to', 'himself.']",
936,1,,,,0.0-19.0,,,,,302670,35,html-button-response,,
936,1,"[1, 1, 1, 1, 1, 1, 1, 1, 1, 1, 1, 1, 1, 1, 1, 1, 1]","[760, 1060, 642, 530, 435, 493, 406, 610, 412, 595, 572, 514, 400, 441, 398, 665, 633]","['x-x-x', 'prices', 'purple', 'goal', 'met', 'anymore', 'save', 'missions', 'die', 'refinements.', 'x-x-x', 'gameplay', 'spot', 'bonuses', 'shut', 'users', 'streets.']",0.0-20.0-0.0,"[1, 0, 1, 0, 0, 0, 0, 1, 0, 0, 1, 0, 0, 0, 0, 1, 0]",,"[760, 1060, 642, 530, 435, 493, 406, 610, 412, 595, 572, 514, 400, 441, 398, 665, 633]",,312239,36,maze,"['A', 'doctor', 'walked', 'into', 'a', 'waiting', 'room', 'carrying', 'a', 'stethoscope.', 'He’d', 'arranged', 'to', 'examine', 'a', 'woman', 'patient.']",
936,1,"[1, 1, 1, 1, 1, 1, 1, 1, 1, 1, 1, 1, 1, 1, 1, 1, 1, 1, 1, 1, 1]","[511, 626, 1038, 513, 459, 546, 679, 554, 686, 542, 536, 588, 503, 658, 505, 611, 475, 427, 568, 493, 522]","['x-x-x', 'pick', 'noticed', 'gone', 'weird', 'pop', 'took', 'lives', 'our', 'sun', 'band', 'researchers', 'fans', 'why', 'teams', 'self', 'option', 'tour', 'cell', 'android', 'abbot.']",0.0-20.0-0.1,"[1, 1, 1, 1, 0, 1, 1, 1, 1, 1, 0, 1, 1, 0, 1, 1, 0, 0, 0, 0, 0]",,"[511, 626, 1038, 513, 459, 546, 679, 554, 686, 542, 536, 588, 503, 658, 505, 611, 475, 427, 568, 493, 522]",,324282,37,maze,"['In', 'the', 'waiting', 'room', 'there', 'was', 'a', 'woman', 'who', 'had', 'a', 'temperature', 'and', 'a', 'man', 'who', 'seemed', 'to', 'have', 'stomach', 'pains.']",
936,1,"[1, 1, 1, 1, 1, 1, 0, 1, 1, 1, 1, 0]","[447, 427, 632, 472, 425, 402, 1212, 448, 576, 1017, 549, 1153]","['x-x-x', 'afford', 'feminism', 'ride', 'knows', 'push', 'does', 'enthusiasts', 'easy', 'yourself', 'east', 'sold.']",0.0-20.0-0.2,"[0, 0, 1, 0, 0, 0, 1, 0, 1, 1, 1, 1]",,"[447, 427, 632, 472, 425, 402, 399, 448, 576, 1017, 549, 581]",,332046,38,maze,"['The', 'doctor', 'examined', 'the', 'woman', 'with', 'the', 'temperature', 'but', ""couldn't"", 'help', 'her.']",
936,1,,,,0.0-21.0,,,,,333048,39,html-button-response,,
936,1,"[0, 1, 1, 1, 1, 1, 1, 0, 0, 1, 1, 1, 1, 1, 1, 1, 1, 1, 1, 1]","[1809, 668, 460, 506, 727, 512, 521, 1316, 1268, 437, 898, 962, 503, 582, 538, 549, 648, 524, 403, 412]","['x-x-x', 'disagreements', 'decade', 'lake', 'heard', 'democrat', 'miss', 'attest', 'vain.', 'x-x-x', 'emplacements', 'carol', 'lady', 'jack', 'mouth', 'anti', 'hill', 'cops', 'bag', 'nor.']",0.0-22.0-0.0,"[1, 0, 0, 1, 1, 1, 1, 0, 1, 0, 0, 1, 0, 1, 0, 1, 0, 0, 0, 0]",,"[750, 668, 460, 506, 727, 512, 521, 486, 549, 437, 898, 962, 503, 582, 538, 549, 648, 524, 403, 412]",,347297,40,maze,"['A', 'schoolteacher', 'walked', 'into', 'class', 'carrying', 'a', 'bamboo', 'cane.', 'He', 'sadistically', 'hoped', 'that', 'he', 'would', 'have', 'to', 'beat', 'a', 'boy.']",
936,1,"[1, 1, 1, 1, 1, 1, 1, 0, 1, 1, 1, 1, 1, 1, 1, 1, 1, 1, 1, 0, 1, 1, 1]","[478, 931, 445, 619, 452, 407, 773, 1284, 441, 443, 728, 603, 652, 382, 583, 470, 403, 543, 630, 1630, 706, 589, 585]","['x-x-x', 'deserved', 'okay', 'luck', 'jack', 'miss', 'nor', 'ways', 'mid', 'sale', 'prices', 'via', 'tax', 'vs', 'till', 'anti', 'sour', 'achieve', 'market', 'types', 'al', 'soul', 'plus.']",0.0-22.0-0.1,"[0, 0, 0, 1, 0, 0, 1, 1, 0, 0, 1, 1, 0, 0, 0, 0, 0, 1, 1, 0, 1, 1, 1]",,"[478, 931, 445, 619, 452, 407, 773, 447, 441, 443, 728, 603, 652, 382, 583, 470, 403, 543, 630, 605, 706, 589, 585]",,362079,41,maze,"['On', 'entering', 'he', 'saw', 'that', 'a', 'boy', 'who', 'had', 'a', 'broken', 'leg', 'and', 'a', 'boy', 'who', 'wore', 'glasses', ""didn't"", 'stand', 'up', 'for', 'him.']",
936,1,"[1, 1, 1, 1, 1, 1, 1, 1, 1, 1, 1, 1, 1, 0, 1]","[576, 787, 562, 494, 458, 595, 560, 564, 561, 543, 517, 494, 439, 1259, 518]","['x-x-x', 'characterised', 'anti', 'seem', 'nor', 'date', 'know', 'exists', 'vary', 'fact', 'sale', 'via', 'global', 'wars', 'laws.']",0.0-22.0-0.2,"[1, 1, 1, 0, 0, 1, 1, 0, 1, 0, 1, 0, 0, 1, 0]",,"[576, 787, 562, 494, 458, 595, 560, 564, 561, 543, 517, 494, 439, 429, 518]",,371010,42,maze,"['The', 'schoolteacher', 'beat', 'the', 'boy', 'with', 'the', 'broken', 'leg', 'but', 'the', 'boy', ""didn't"", 'cry', 'out.']",
936,1,,,,0.0-23.0,,,,,372011,43,html-button-response,,
936,1,"[1, 1, 1, 1, 1, 1, 0, 1, 1, 1, 1, 1, 1, 1, 1, 1, 1, 1, 1]","[479, 775, 563, 462, 545, 541, 1348, 604, 773, 606, 648, 520, 852, 589, 647, 434, 776, 397, 656]","['x-x-x', 'habitats', 'finals', 'god', 'cent', 'soul', 'sir', 'churches', 'yeah', 'expand', 'rarity.', 'x-x-x', 'amazing', 'mess', 'sale', 'app', 'senate', 'pre', 'dams.']",0.0-24.0-0.0,"[0, 1, 1, 1, 0, 1, 1, 0, 1, 0, 1, 1, 1, 1, 1, 1, 0, 0, 0]",,"[479, 775, 563, 462, 545, 541, 506, 604, 773, 606, 648, 520, 852, 589, 647, 434, 776, 397, 656]",,384228,44,maze,"['A', 'mechanic', 'walked', 'up', 'to', 'a', 'car', 'carrying', 'a', 'monkey', 'wrench.', 'He', 'thought', 'he’d', 'have', 'to', 'change', 'a', 'tyre.']",
936,1,"[1, 1, 1, 1, 1, 1, 1, 1, 1, 1, 1, 1, 1, 1, 1, 1, 1, 1, 1, 1, 1, 1, 0, 1, 1, 1]","[531, 1063, 577, 650, 598, 876, 467, 655, 506, 596, 703, 582, 668, 516, 1020, 714, 627, 481, 743, 407, 415, 631, 1414, 1167, 519, 497]","['x-x-x', 'motivated', 'hour', 'whom', 'al', 'queen', 'jack', 'agree', 'glad', 'app', 'airs', 'games', 'pre', 'sir', 'trolls', 'hates', 'hear', 'lord', 'rite', 'happy', 'page', 'cent', 'wrote', 'dawn', 'god', 'knew.']",0.0-24.0-0.1,"[1, 1, 1, 1, 1, 0, 0, 1, 0, 1, 0, 1, 1, 1, 1, 1, 0, 1, 0, 0, 0, 1, 1, 0, 1, 0]",,"[531, 1063, 577, 650, 598, 876, 467, 655, 506, 596, 703, 582, 668, 516, 1020, 714, 627, 481, 743, 407, 415, 631, 563, 1167, 519, 497]",,401893,45,maze,"['On', 'examining', 'the', 'car', 'he', 'found', 'that', 'there', 'was', 'a', 'tyre', 'which', 'had', 'a', 'faulty', 'valve', 'and', 'a', 'tyre', 'which', 'had', 'a', 'small', 'hole', 'in', 'it.']",
936,1,"[1, 1, 1, 1, 1, 1, 1, 1, 1, 1, 1, 1, 1, 1, 1]","[452, 587, 574, 523, 608, 530, 573, 502, 401, 417, 445, 617, 563, 540, 484]","['x-x-x', 'marketed', 'seconds', 'miss', 'oaks', 'sick', 'died', 'preach', 'uphold', 'eat', 'fund', 'hate', 'hall', 'hear', 'born.']",0.0-24.0-0.2,"[0, 1, 0, 1, 1, 1, 0, 0, 0, 0, 0, 1, 1, 1, 0]",,"[452, 587, 574, 523, 608, 530, 573, 502, 401, 417, 445, 617, 563, 540, 484]",,409711,46,maze,"['The', 'mechanic', 'changed', 'the', 'tyre', 'with', 'the', 'monkey', 'wrench', 'but', 'it', 'took', 'a', 'long', 'time.']",
936,1,,,,0.0-25.0,,,,,410712,47,html-button-response,,
936,1,"[1, 1, 1, 1, 1, 1, 1, 1, 1, 1, 1, 1, 1, 1, 1, 1, 1, 1, 1]","[579, 737, 524, 585, 649, 483, 444, 457, 551, 989, 502, 605, 544, 707, 625, 526, 476, 493, 430]","['x-x-x', 'reactions', 'wind', 'billion', 'ice', 'went', 'causes', 'require', 'came', 'led', 'them', 'grandchild.', 'x-x-x', 'body', 'coast', 'heat', 'brain', 'foot', 'aware.']",0.0-26.0-0.0,"[1, 1, 0, 0, 1, 0, 0, 0, 1, 1, 0, 0, 1, 1, 0, 1, 0, 1, 0]",,"[579, 737, 524, 585, 649, 483, 444, 457, 551, 989, 502, 605, 544, 707, 625, 526, 476, 493, 430]",,421622,48,maze,"['A', 'detective', 'was', 'sitting', 'at', 'a', 'window', 'holding', 'a', 'set', 'of', 'binoculars.', 'He’d', 'been', 'asked', 'to', 'watch', 'a', 'woman.']",
936,1,"[1, 1, 1, 1, 1, 1, 1, 1, 1, 1, 1, 1, 1, 1, 1, 1, 1, 1, 1, 1]","[479, 480, 577, 490, 454, 610, 455, 487, 613, 518, 714, 465, 488, 997, 445, 417, 460, 432, 414, 553]","['x-x-x', 'kept', 'gave', 'slow', 'true', 'million', 'park', 'march', 'bus', 'cell', 'apart', 'factors', 'site', 'insiders', 'wind', 'cost', 'costs', 'airport', 'year', 'honours.']",0.0-26.0-0.1,"[1, 1, 1, 0, 0, 1, 1, 1, 0, 1, 0, 0, 1, 1, 0, 0, 0, 0, 0, 0]",,"[479, 480, 577, 490, 454, 610, 455, 487, 613, 518, 714, 465, 488, 997, 445, 417, 460, 432, 414, 553]",,432171,49,maze,"['In', 'the', 'room', 'he', 'was', 'looking', 'into', 'there', 'was', 'a', 'woman', 'holding', 'a', 'revolver', 'and', 'a', 'man', 'holding', 'a', 'grenade.']",
936,1,"[1, 1, 1, 1, 1, 1, 1, 1, 1, 1, 1, 1, 1, 1]","[549, 579, 566, 409, 703, 520, 781, 580, 407, 429, 649, 643, 554, 1033]","['x-x-x', 'preparing', 'poverty', 'heat', 'meant', 'wood', 'year', 'reelection', 'poor', 'firm', 'size', 'cost', 'wants', 'land.']",0.0-26.0-0.2,"[1, 0, 0, 0, 1, 1, 1, 0, 0, 0, 1, 1, 0, 1]",,"[549, 579, 566, 409, 703, 520, 781, 580, 407, 429, 649, 643, 554, 1033]",,440575,50,maze,"['The', 'detective', 'watched', 'the', 'woman', 'with', 'the', 'revolver', 'and', 'then', 'made', 'a', 'phone', 'call.']",
936,1,,,,0.0-27.0,,,,,441576,51,html-button-response,,
936,1,"[1, 1, 1, 1, 1, 1, 1, 1, 1, 1, 1, 1, 1, 1, 1, 1, 1]","[487, 500, 985, 605, 1295, 438, 618, 871, 461, 469, 500, 605, 778, 416, 586, 519, 433]","['x-x-x', 'rumors', 'nice', 'hall', 'courses', 'mark', 'cops', 'worst', 'meet', 'gigs.', 'x-x-x', 'else', 'memories', 'send', 'info', 'gain', 'resign.']",0.0-28.0-0.0,"[0, 0, 1, 1, 1, 1, 1, 0, 0, 0, 1, 0, 0, 0, 1, 1, 0]",,"[487, 500, 985, 605, 1295, 438, 618, 871, 461, 469, 500, 605, 778, 416, 586, 519, 433]",,452143,52,maze,"['A', 'monkey', 'had', 'been', 'trained', 'to', 'eat', 'using', 'a', 'fork.', 'It', 'was', 'supposed', 'to', 'eat', 'a', 'banana.']",
936,1,"[1, 1, 0, 1, 1, 1, 1, 1, 1, 1, 1, 0, 1, 1, 1, 1, 1]","[481, 697, 1276, 450, 703, 529, 549, 463, 567, 613, 442, 1230, 485, 460, 419, 769, 814]","['x-x-x', 'mid', 'worry', 'kid', 'misses', 'goals', 'mind', 'step', 'faking', 'else', 'am', 'vote', 'deal', 'deals', 'risk', 'jobs', 'opinion.']",0.0-28.0-0.1,"[1, 0, 1, 0, 1, 0, 1, 0, 1, 0, 1, 1, 0, 0, 0, 0, 1]",,"[481, 697, 432, 450, 703, 529, 549, 463, 567, 613, 442, 435, 485, 460, 419, 769, 814]",,463095,53,maze,"['It', 'was', 'given', 'a', 'banana', 'which', 'had', 'a', 'bruise', 'on', 'it', 'and', 'a', 'banana', 'that', 'was', 'perfect.']",
936,1,"[0, 0, 1, 1, 1, 1, 1, 1, 1, 1, 1, 1]","[1271, 1243, 644, 472, 432, 405, 605, 979, 614, 919, 585, 403]","['x-x-x', 'deploy', 'ease', 'gain', 'trends', 'risk', 'hall', 'squads', 'jobs', 'rule', 'governance', 'attorney.']",0.0-28.0-0.2,"[1, 1, 0, 0, 0, 0, 1, 1, 1, 1, 0, 0]",,"[440, 445, 644, 472, 432, 405, 605, 979, 614, 919, 585, 403]",,471671,54,maze,"['The', 'monkey', 'ate', 'the', 'banana', 'with', 'the', 'fork', 'much', 'to', 'everyone’s', 'surprise.']",
936,1,,,,0.0-29.0,,,,,472672,55,html-button-response,,
936,1,"[1, 1, 1, 1, 1, 0, 1, 1, 1, 1, 1, 1, 1, 1, 1, 1, 1, 1]","[561, 449, 522, 443, 532, 1310, 704, 576, 780, 542, 496, 641, 445, 421, 627, 723, 420, 662]","['x-x-x', 'revolts', 'liquids', 'deal', 'cat', 'freemen', 'expenses', 'lose', 'whom.', 'x-x-x', 'feelings', 'bag', 'than', 'says', 'kid', 'imagine', 'mom', 'versa.']",0.0-30.0-0.0,"[1, 0, 0, 0, 1, 1, 1, 0, 0, 1, 0, 1, 0, 0, 1, 0, 0, 1]",,"[561, 449, 522, 443, 532, 489, 704, 576, 780, 542, 496, 641, 445, 421, 627, 723, 420, 662]",,483530,56,maze,"['A', 'workman', 'climbed', 'down', 'a', 'manhole', 'carrying', 'a', 'saw.', 'He', 'expected', 'to', 'have', 'to', 'cut', 'through', 'a', 'valve.']",
936,1,"[1, 1, 1, 1, 1, 1, 1, 1, 1, 1, 1, 1, 1, 1, 1, 1, 1, 1, 1, 1, 1, 0, 1, 1, 0]","[451, 652, 476, 593, 807, 440, 1014, 418, 408, 593, 962, 528, 738, 547, 566, 560, 510, 908, 535, 544, 468, 1394, 1084, 562, 1261]","['x-x-x', 'wait', 'aspired', 'sure', 'truth', 'lot', 'acids', 'sorry', 'hill', 'page', 'jobs', 'lake', 'cubs', 'list', 'hour', 'god', 'laws', 'ethnic', 'self', 'pros', 'goals', 'male', 'vote', 'rallies', 'sell.']",0.0-30.0-0.1,"[0, 1, 0, 0, 1, 0, 0, 0, 0, 1, 1, 1, 0, 1, 1, 0, 1, 1, 0, 0, 0, 1, 1, 1, 0]",,"[451, 652, 476, 593, 807, 440, 1014, 418, 408, 593, 962, 528, 738, 547, 566, 560, 510, 908, 535, 544, 468, 565, 1084, 562, 451]",,500552,57,maze,"['Down', 'the', 'manhole', 'he', 'found', 'a', 'valve', 'which', 'had', 'a', 'lot', 'of', 'rust', 'on', 'it', 'and', 'a', 'section', 'of', 'pipe', 'which', 'had', 'been', 'leaking', 'gas.']",
936,1,"[1, 1, 1, 1, 1, 1, 1, 1, 1, 1, 1, 0, 0, 0]","[434, 439, 1364, 449, 632, 696, 771, 494, 518, 637, 474, 1246, 1244, 1244]","['x-x-x', 'denoted', 'sad', 'imagine', 'okay', 'forth', 'poor', 'says', 'pays', 'senate', 'studios', 'buy', 'guys', 'him.']",0.0-30.0-0.2,"[0, 0, 0, 0, 1, 1, 1, 1, 1, 1, 0, 0, 1, 0]",,"[434, 439, 1364, 449, 632, 696, 771, 494, 518, 637, 474, 444, 447, 587]",,511200,58,maze,"['The', 'workman', 'cut', 'through', 'the', 'valve', 'with', 'the', 'saw', 'before', 'fitting', 'a', 'new', 'one.']",
936,1,,,,0.0-31.0,,,,,512201,59,html-button-response,,
936,1,"[1, 1, 1, 1, 1, 1, 1, 1, 1, 1, 0, 1, 1, 0, 1, 1, 1, 1, 1, 1, 1, 1, 1, 1, 1]","[777, 423, 647, 430, 400, 397, 408, 1184, 474, 645, 1240, 455, 524, 1149, 461, 821, 531, 872, 417, 413, 585, 742, 800, 409, 473]","['x-x-x', 'drinks', 'guys', 'anymore', 'push', 'eat', 'apply', 'nations', 'non', 'goes', 'spite.', 'x-x-x', 'else', 'am', 'throws', 'symbolizing', 'lots', 'hill', 'wood', 'basis', 'same', 'sizes', 'gift', 'hear', 'beings.']",0.0-32.0-0.0,"[0, 0, 1, 0, 0, 0, 0, 1, 0, 1, 1, 0, 0, 1, 0, 1, 0, 0, 0, 0, 1, 1, 0, 0, 0]",,"[777, 423, 647, 430, 400, 397, 408, 1184, 474, 645, 571, 455, 524, 406, 461, 821, 531, 872, 417, 413, 585, 742, 800, 409, 473]",,527883,60,maze,"['An', 'artist', 'was', 'working', 'at', 'a', 'table', 'holding', 'a', 'long', 'brush.', 'He', 'had', 'a', 'sudden', 'premonition', 'that', 'he', 'was', 'going', 'to', 'knock', 'over', 'a', 'bottle.']",
936,1,"[1, 0, 1, 1, 1, 1, 1, 1, 1, 1, 1, 1, 1, 1, 1, 1]","[431, 1641, 410, 611, 490, 562, 811, 536, 665, 639, 459, 418, 602, 577, 553, 631]","['x-x-x', 'bag', 'aware', 'sorry', 'okay', 'knew', 'abroad', 'interviews', 'bill', 'relax', 'ask', 'vote', 'blame', 'defend', 'move', 'agree.']",0.0-32.0-0.1,"[0, 1, 0, 1, 1, 1, 1, 0, 0, 1, 0, 0, 1, 0, 1, 1]",,"[431, 485, 410, 611, 490, 562, 811, 536, 665, 639, 459, 418, 602, 577, 553, 631]",,537920,61,maze,"['On', 'the', 'table', 'there', 'was', 'a', 'bottle', 'containing', 'some', 'paint', 'and', 'a', 'bottle', 'filled', 'with', 'water.']",
936,1,"[1, 1, 1, 1, 1, 1, 1, 1, 1, 1, 1, 0, 0]","[428, 545, 675, 677, 388, 600, 572, 430, 616, 561, 568, 1427, 1685]","['x-x-x', 'anyway', 'barristers', 'verdict', 'mean', 'wish', 'depend', 'hear', 'knew', 'meets', 'wait', 'ethic', 'barrow.']",0.0-32.0-0.2,"[0, 0, 1, 0, 0, 1, 1, 1, 0, 1, 0, 0, 1]",,"[428, 545, 675, 677, 388, 600, 572, 430, 616, 561, 568, 605, 642]",,547096,62,maze,"['The', 'artist', 'accidently', 'knocked', 'over', 'the', 'bottle', 'with', 'the', 'brush', 'and', 'swore', 'loudly.']",
936,1,,,,0.0-33.0,,,,,548097,63,html-button-response,,
936,1,"[1, 1, 1, 1, 1, 1, 1, 1, 1, 0, 1, 1, 1, 1, 1, 1, 1, 1]","[553, 900, 683, 568, 621, 607, 528, 391, 588, 2085, 484, 878, 524, 633, 510, 524, 617, 605]","['x-x-x', 'prices', 'eyes', 'vitamins', 'lack', 'shut', 'updates', 'yes', 'flows', 'tasks.', 'x-x-x', 'stupid', 'cup', 'feet', 'met', 'exists', 'none', 'settle.']",0.0-34.0-0.0,"[0, 1, 1, 0, 1, 1, 0, 0, 1, 0, 0, 1, 1, 1, 1, 1, 0, 1]",,"[553, 900, 683, 568, 621, 607, 528, 391, 588, 510, 484, 878, 524, 633, 510, 524, 617, 605]",,560402,64,maze,"['A', 'little', 'girl', 'borrowed', 'from', 'the', 'kitchen', 'a', 'bread', 'knife.', 'She', 'wanted', 'to', 'cut', 'an', 'orange', 'into', 'pieces.']",
936,1,"[1, 0, 1, 1, 1, 1, 1, 1, 1, 1, 1, 1, 1, 1, 1, 1, 1, 1, 1, 1, 1, 1]","[426, 1916, 576, 411, 717, 596, 491, 757, 470, 491, 422, 825, 457, 706, 584, 534, 726, 533, 586, 525, 563, 540]","['x-x-x', 'worse', 'shut', 'guy', 'hates', 'fate', 'goal', 'senate', 'plans', 'mind', 'job', 'gets', 'argue', 'lire', 'cars', 'wait', 'renovate', 'goals', 'shop', 'plan', 'harm', 'saws.']",0.0-34.0-0.1,"[0, 1, 0, 0, 1, 1, 0, 1, 1, 1, 1, 0, 0, 0, 1, 1, 1, 0, 1, 1, 0, 1]",,"[426, 791, 576, 411, 717, 596, 491, 757, 470, 491, 422, 825, 457, 706, 584, 534, 726, 533, 586, 525, 563, 540]",,574257,65,maze,"['She', 'found', 'in', 'the', 'fruit', 'bowl', 'an', 'orange', 'which', 'had', 'a', 'very', 'thick', 'rind', 'and', 'a', 'tangerine', 'which', 'had', 'a', 'thin', 'rind.']",
936,1,"[1, 0, 1, 1, 1, 1, 1, 1, 1, 1, 1, 0, 1, 0, 0, 1]","[445, 1441, 375, 430, 434, 450, 581, 540, 558, 547, 636, 1287, 549, 1229, 1451, 507]","['x-x-x', 'enough', 'shut', 'trump', 'hall', 'upon', 'trip', 'expect', 'hope', 'than', 'acres', 'lien', 'self', 'us', 'till', 'follows.']",0.0-34.0-0.2,"[0, 0, 0, 0, 0, 0, 1, 0, 1, 1, 1, 0, 1, 1, 0, 1]",,"[445, 649, 375, 430, 434, 450, 581, 540, 558, 547, 636, 479, 549, 501, 569, 507]",,585726,66,maze,"['The', 'little', 'girl', 'tried', 'to', 'cut', 'the', 'orange', 'with', 'the', 'thick', 'rind', 'but', 'to', 'no', 'success.']",
936,1,,,,0.0-35.0,,,,,586727,67,html-button-response,,
936,1,,,,0.0-36.0,,"{'other': '', 'errors': '', 'length': '', 'strange': '', 'understand': '', 'what-about': ''}",2254,,588988,68,survey-text,,
936,1,,,,0.0-37.0,,0,1403,<h2>Many thanks for participating!</h2><p>We are interested in how people integrate the words they read into the context of the sentence so far.<h1>Press continue to be redirected to Prolific. </h1>,590393,69,html-button-response,,
935,1,,,,0.0-0.0,,0,2903," <center><img width=""300px"" src=""assets/stanford.png"" /></center><div id=""legal""></br>By answering the following questions, you are participating in a study being performed by cognitive scientists in the Stanford Department of Psychology. If you have questions about this research, please contact us at  <a href=""mailto://languagecoglab@gmail.com.""> languagecoglab@gmail.com</a>.You must be at least 18 years old to participate. Your participation in this research is voluntary. You may decline to answer any or all of the following questions. You may decline further participation, at any time, without adverse consequences. Your anonymity is assured; the researchers who have requested your participation will not receive any personal information about you. </div></br>",2909,0,html-button-response,,
935,1,,,,0.0-1.0,,0,1947,"<h3>Please read these instructions carefully!</h3> </br><p>For this experiment, please place your <b>left index finger on the 'e' key</b> and your <b>right index finger on the 'i' key</b>.</p><p> You will read sentences word by word. On each screen you will see two options: one will be the next word in the sentence, and one will not. </p><p><b>Select the word that continues the sentence by pressing 'e' (left-hand) for the word on the left or pressing 'i' (right-hand) for the word on the right.</b></p><p>Select the best word as quickly as you can, but without making too many errors. </p><div><p>Click ""Continue"" to try this on a practice sentence.</p></div>",4858,1,html-button-response,,
935,1,[],[],[],0.0-2.0,[],,[],,21348,2,maze,[],
935,1,,,,0.0-3.0,,0,2748,"<h3>Please read these instructions carefully!</h3> </br><p>Great job! Now you are ready for the main experiment.</p><p> You will now read 16 short stories in the same word-by-word way.</p><div><p>Click ""Continue"" to start the experiment.</p>",24097,3,html-button-response,,
935,1,[],[],[],0.0-4.0-0.0,[],,[],,37952,4,maze,[],
935,1,[],[],[],0.0-4.0-0.1,[],,[],,47702,5,maze,[],
935,1,[],[],[],0.0-4.0-0.2,[],,[],,56036,6,maze,[],
935,1,,,,0.0-5.0,,,,,57037,7,html-button-response,,
935,1,[],[],[],0.0-6.0-0.0,[],,[],,69054,8,maze,[],
935,1,[],[],[],0.0-6.0-0.1,[],,[],,80544,9,maze,[],
935,1,[],[],[],0.0-6.0-0.2,[],,[],,88124,10,maze,[],
935,1,,,,0.0-7.0,,,,,89127,11,html-button-response,,
935,1,[],[],[],0.0-8.0-0.0,[],,[],,99766,12,maze,[],
935,1,[],[],[],0.0-8.0-0.1,[],,[],,112707,13,maze,[],
935,1,[],[],[],0.0-8.0-0.2,[],,[],,122073,14,maze,[],
935,1,,,,0.0-9.0,,,,,123074,15,html-button-response,,
935,1,[],[],[],0.0-10.0-0.0,[],,[],,135599,16,maze,[],
935,1,[],[],[],0.0-10.0-0.1,[],,[],,148232,17,maze,[],
935,1,[],[],[],0.0-10.0-0.2,[],,[],,157889,18,maze,[],
935,1,,,,0.0-11.0,,,,,158908,19,html-button-response,,
935,1,[],[],[],0.0-12.0-0.0,[],,[],,170038,20,maze,[],
935,1,[],[],[],0.0-12.0-0.1,[],,[],,179535,21,maze,[],
935,1,[],[],[],0.0-12.0-0.2,[],,[],,186282,22,maze,[],
935,1,,,,0.0-13.0,,,,,187284,23,html-button-response,,
935,1,[],[],[],0.0-14.0-0.0,[],,[],,199926,24,maze,[],
935,1,[],[],[],0.0-14.0-0.1,[],,[],,213969,25,maze,[],
935,1,[],[],[],0.0-14.0-0.2,[],,[],,223117,26,maze,[],
935,1,,,,0.0-15.0,,,,,224118,27,html-button-response,,
935,1,[],[],[],0.0-16.0-0.0,[],,[],,247180,28,maze,[],
935,1,[],[],[],0.0-16.0-0.1,[],,[],,264250,29,maze,[],
935,1,[],[],[],0.0-16.0-0.2,[],,[],,272349,30,maze,[],
935,1,,,,0.0-17.0,,,,,273350,31,html-button-response,,
935,1,[],[],[],0.0-18.0-0.0,[],,[],,285943,32,maze,[],
935,1,[],[],[],0.0-18.0-0.1,[],,[],,296710,33,maze,[],
935,1,[],[],[],0.0-18.0-0.2,[],,[],,304593,34,maze,[],
935,1,,,,0.0-19.0,,,,,305595,35,html-button-response,,
935,1,[],[],[],0.0-20.0-0.0,[],,[],,316799,36,maze,[],
935,1,[],[],[],0.0-20.0-0.1,[],,[],,329221,37,maze,[],
935,1,[],[],[],0.0-20.0-0.2,[],,[],,337769,38,maze,[],
935,1,,,,0.0-21.0,,,,,338770,39,html-button-response,,
935,1,[],[],[],0.0-22.0-0.0,[],,[],,349848,40,maze,[],
935,1,[],[],[],0.0-22.0-0.1,[],,[],,361201,41,maze,[],
935,1,[],[],[],0.0-22.0-0.2,[],,[],,371950,42,maze,[],
935,1,,,,0.0-23.0,,,,,372950,43,html-button-response,,
935,1,[],[],[],0.0-24.0-0.0,[],,[],,384574,44,maze,[],
935,1,[],[],[],0.0-24.0-0.1,[],,[],,400094,45,maze,[],
935,1,[],[],[],0.0-24.0-0.2,[],,[],,413017,46,maze,[],
935,1,,,,0.0-25.0,,,,,414017,47,html-button-response,,
935,1,[],[],[],0.0-26.0-0.0,[],,[],,425614,48,maze,[],
935,1,[],[],[],0.0-26.0-0.1,[],,[],,441502,49,maze,[],
935,1,[],[],[],0.0-26.0-0.2,[],,[],,450304,50,maze,[],
935,1,,,,0.0-27.0,,,,,451306,51,html-button-response,,
935,1,[],[],[],0.0-28.0-0.0,[],,[],,465566,52,maze,[],
935,1,[],[],[],0.0-28.0-0.1,[],,[],,481369,53,maze,[],
935,1,[],[],[],0.0-28.0-0.2,[],,[],,489605,54,maze,[],
935,1,,,,0.0-29.0,,,,,490605,55,html-button-response,,
935,1,[],[],[],0.0-30.0-0.0,[],,[],,502999,56,maze,[],
935,1,[],[],[],0.0-30.0-0.1,[],,[],,519654,57,maze,[],
935,1,[],[],[],0.0-30.0-0.2,[],,[],,529478,58,maze,[],
935,1,,,,0.0-31.0,,,,,530479,59,html-button-response,,
935,1,[],[],[],0.0-32.0-0.0,[],,[],,543489,60,maze,[],
935,1,[],[],[],0.0-32.0-0.1,[],,[],,556260,61,maze,[],
935,1,[],[],[],0.0-32.0-0.2,[],,[],,564766,62,maze,[],
935,1,,,,0.0-33.0,,,,,565768,63,html-button-response,,
935,1,[],[],[],0.0-34.0-0.0,[],,[],,585872,64,maze,[],
935,1,[],[],[],0.0-34.0-0.1,[],,[],,599671,65,maze,[],
935,1,[],[],[],0.0-34.0-0.2,[],,[],,609087,66,maze,[],
935,1,,,,0.0-35.0,,,,,610088,67,html-button-response,,
935,1,,,,0.0-36.0,,"{'other': 'this is veronica', 'errors': '', 'length': '', 'strange': 'british spelling oops', 'understand': '', 'what-about': 'jfaglksjdg'}",17019,,627114,68,survey-text,,
935,1,,,,0.0-37.0,,0,2381,<h2>Many thanks for participating!</h2><p>We are interested in how people integrate the words they read into the context of the sentence so far.<h1>Press continue to be redirected to Prolific. </h1>,629497,69,html-button-response,,
934,1,,,,0.0-0.0,,0,2419," <center><img width=""300px"" src=""assets/stanford.png"" /></center><div id=""legal""></br>By answering the following questions, you are participating in a study being performed by cognitive scientists in the Stanford Department of Psychology. If you have questions about this research, please contact us at  <a href=""mailto://languagecoglab@gmail.com.""> languagecoglab@gmail.com</a>.You must be at least 18 years old to participate. Your participation in this research is voluntary. You may decline to answer any or all of the following questions. You may decline further participation, at any time, without adverse consequences. Your anonymity is assured; the researchers who have requested your participation will not receive any personal information about you. </div></br>",2424,0,html-button-response,,
934,1,,,,0.0-1.0,,0,34431,"<h3>Please read these instructions carefully!</h3> </br><p>For this experiment, please place your <b>left index finger on the 'e' key</b> and your <b>right index finger on the 'i' key</b>.</p><p> You will read sentences word by word. On each screen you will see two options: one will be the next word in the sentence, and one will not. </p><p><b>Select the word that continues the sentence by pressing 'e' (left-hand) for the word on the left or pressing 'i' (right-hand) for the word on the right.</b></p><p>Select the best word as quickly as you can, but without making too many errors. </p><div><p>Click ""Continue"" to try this on a practice sentence.</p></div>",36857,1,html-button-response,,
934,1,[],[],[],0.0-2.0,[],,[],,57867,2,maze,[],
934,1,,,,0.0-3.0,,0,9922,"<h3>Please read these instructions carefully!</h3> </br><p>Great job! Now you are ready for the main experiment.</p><p> You will now read 16 short stories in the same word-by-word way.</p><div><p>Click ""Continue"" to start the experiment.</p>",67790,3,html-button-response,,
934,1,[],[],[],0.0-4.0-0.0,[],,[],,82091,4,maze,[],
934,1,[],[],[],0.0-4.0-0.1,[],,[],,98106,5,maze,[],
934,1,[],[],[],0.0-4.0-0.2,[],,[],,110634,6,maze,[],
934,1,,,,0.0-5.0,,,,,111643,7,html-button-response,,
934,1,[],[],[],0.0-6.0-0.0,[],,[],,129194,8,maze,[],
934,1,[],[],[],0.0-6.0-0.1,[],,[],,148886,9,maze,[],
934,1,[],[],[],0.0-6.0-0.2,[],,[],,161384,10,maze,[],
934,1,,,,0.0-7.0,,,,,162394,11,html-button-response,,
934,1,[],[],[],0.0-8.0-0.0,[],,[],,181316,12,maze,[],
934,1,[],[],[],0.0-8.0-0.1,[],,[],,194346,13,maze,[],
934,1,[],[],[],0.0-8.0-0.2,[],,[],,205854,14,maze,[],
934,1,,,,0.0-9.0,,,,,206864,15,html-button-response,,
934,1,[],[],[],0.0-10.0-0.0,[],,[],,219610,16,maze,[],
934,1,[],[],[],0.0-10.0-0.1,[],,[],,232229,17,maze,[],
934,1,[],[],[],0.0-10.0-0.2,[],,[],,240316,18,maze,[],
934,1,,,,0.0-11.0,,,,,241332,19,html-button-response,,
934,1,[],[],[],0.0-12.0-0.0,[],,[],,264349,20,maze,[],
934,1,[],[],[],0.0-12.0-0.1,[],,[],,276867,21,maze,[],
934,1,[],[],[],0.0-12.0-0.2,[],,[],,286518,22,maze,[],
934,1,,,,0.0-13.0,,,,,287522,23,html-button-response,,
934,1,[],[],[],0.0-14.0-0.0,[],,[],,304316,24,maze,[],
934,1,[],[],[],0.0-14.0-0.1,[],,[],,316172,25,maze,[],
934,1,[],[],[],0.0-14.0-0.2,[],,[],,325246,26,maze,[],
934,1,,,,0.0-15.0,,,,,326255,27,html-button-response,,
934,1,[],[],[],0.0-16.0-0.0,[],,[],,343853,28,maze,[],
934,1,[],[],[],0.0-16.0-0.1,[],,[],,359386,29,maze,[],
934,1,[],[],[],0.0-16.0-0.2,[],,[],,372118,30,maze,[],
934,1,,,,0.0-17.0,,,,,373128,31,html-button-response,,
934,1,[],[],[],0.0-18.0-0.0,[],,[],,387410,32,maze,[],
934,1,[],[],[],0.0-18.0-0.1,[],,[],,402433,33,maze,[],
934,1,[],[],[],0.0-18.0-0.2,[],,[],,412326,34,maze,[],
934,1,,,,0.0-19.0,,,,,413337,35,html-button-response,,
934,1,[],[],[],0.0-20.0-0.0,[],,[],,428695,36,maze,[],
934,1,[],[],[],0.0-20.0-0.1,[],,[],,445761,37,maze,[],
934,1,[],[],[],0.0-20.0-0.2,[],,[],,460201,38,maze,[],
934,1,,,,0.0-21.0,,,,,461215,39,html-button-response,,
934,1,[],[],[],0.0-22.0-0.0,[],,[],,476864,40,maze,[],
934,1,[],[],[],0.0-22.0-0.1,[],,[],,489466,41,maze,[],
934,1,[],[],[],0.0-22.0-0.2,[],,[],,499020,42,maze,[],
934,1,,,,0.0-23.0,,,,,500024,43,html-button-response,,
934,1,[],[],[],0.0-24.0-0.0,[],,[],,518517,44,maze,[],
934,1,[],[],[],0.0-24.0-0.1,[],,[],,534389,45,maze,[],
934,1,[],[],[],0.0-24.0-0.2,[],,[],,544081,46,maze,[],
934,1,,,,0.0-25.0,,,,,545090,47,html-button-response,,
934,1,[],[],[],0.0-26.0-0.0,[],,[],,557964,48,maze,[],
934,1,[],[],[],0.0-26.0-0.1,[],,[],,572056,49,maze,[],
934,1,[],[],[],0.0-26.0-0.2,[],,[],,583550,50,maze,[],
934,1,,,,0.0-27.0,,,,,584558,51,html-button-response,,
934,1,[],[],[],0.0-28.0-0.0,[],,[],,598793,52,maze,[],
934,1,[],[],[],0.0-28.0-0.1,[],,[],,620314,53,maze,[],
934,1,[],[],[],0.0-28.0-0.2,[],,[],,629807,54,maze,[],
934,1,,,,0.0-29.0,,,,,630815,55,html-button-response,,
934,1,[],[],[],0.0-30.0-0.0,[],,[],,645192,56,maze,[],
934,1,[],[],[],0.0-30.0-0.1,[],,[],,662200,57,maze,[],
934,1,[],[],[],0.0-30.0-0.2,[],,[],,669940,58,maze,[],
934,1,,,,0.0-31.0,,,,,670942,59,html-button-response,,
934,1,[],[],[],0.0-32.0-0.0,[],,[],,685550,60,maze,[],
934,1,[],[],[],0.0-32.0-0.1,[],,[],,700114,61,maze,[],
934,1,[],[],[],0.0-32.0-0.2,[],,[],,709463,62,maze,[],
934,1,,,,0.0-33.0,,,,,710473,63,html-button-response,,
934,1,[],[],[],0.0-34.0-0.0,[],,[],,722594,64,maze,[],
934,1,[],[],[],0.0-34.0-0.1,[],,[],,738639,65,maze,[],
934,1,[],[],[],0.0-34.0-0.2,[],,[],,748226,66,maze,[],
934,1,,,,0.0-35.0,,,,,749234,67,html-button-response,,
934,1,,,,0.0-36.0,,"{'other': 'No :)', 'errors': 'No!', 'length': 'I would have preferred a little shorter', 'strange': 'Not really', 'understand': 'I think the instructions were clear', 'what-about': 'How people make errors in next word prediction?'}",77984,,827233,68,survey-text,,
934,1,,,,0.0-37.0,,0,5732,<h2>Many thanks for participating!</h2><p>We are interested in how people integrate the words they read into the context of the sentence so far.<h1>Press continue to be redirected to Prolific. </h1>,832966,69,html-button-response,,
