workerid,proliferate.condition,correct,cumrt,distractors,internal_node_id,item,order,response,rt,sentence,stimulus,time_elapsed,trial_index,trial_type,type,words,error
941,i,,,,0.0-0.0,,,0,1234,," <center><img width=""300px"" src=""assets/stanford.png"" /></center><div id=""legal""></br>By answering the following questions, you are participating in a study being performed by cognitive scientists in the Stanford Department of Psychology. If you have questions about this research, please contact us at  <a href=""mailto://languagecoglab@gmail.com.""> languagecoglab@gmail.com</a>.You must be at least 18 years old to participate. Your participation in this research is voluntary. You may decline to answer any or all of the following questions. You may decline further participation, at any time, without adverse consequences. Your anonymity is assured; the researchers who have requested your participation will not receive any personal information about you. </div></br>",1236,0,html-button-response,,,
941,i,,,,0.0-1.0,,,0,11947,,"<h3>Please read these instructions carefully!</h3> </br><p>For this experiment, please place your <b>left index finger on the 'e' key</b> and your <b>right index finger on the 'i' key</b>.</p><p> You will read sentences word by word. However, you will have to guess which word comes next. On each screen you will see two options: one will be the next word in the sentence, and one will not. </p><p><b>Select the word that continues the sentence by pressing 'e' (left-hand) for the word on the left or pressing 'i' (right-hand) for the word on the right.</b></p><p>Select the best word as quickly as you can, but without making too many errors. </p><div><p>Click ""Continue"" to try this on a practice sentence.</p></div>",13184,1,html-button-response,,,
941,i,"[1, 1, 1, 1, 1, 1, 1, 1, 1, 1, 1, 1, 1, 1]","[3437, 1999, 904, 880, 1032, 808, 696, 656, 624, 2128, 591, 528, 568, 704]","['x-x-x', 'whom', 'knew', 'appeared', 'emotions', 'know', 'dad', 'lake', 'edition', 'jack', 'fans', 'fund', 'grow', 'died.']",0.0-2.0,,"[0, 0, 0, 0, 1, 0, 1, 1, 1, 1, 0, 1, 1, 1]",,"[3437, 1999, 904, 880, 1032, 808, 696, 656, 624, 2128, 591, 528, 568, 704]",,,28753,2,maze,,"['This', 'is', 'a', 'practice', 'sentence', 'that', 'you', 'are', 'reading', 'one', 'word', 'at', 'a', 'time.']",
941,i,,,,0.0-3.0,,,0,1984,,"<h3>Please read these instructions carefully!</h3> </br><p>Great job! Now you are ready for the main experiment.</p><p> You will now read 16 short stories in the same word-by-word way.</p><div><p>Click ""Continue"" to start the experiment.</p>",30738,3,html-button-response,,,
941,i,"[1, 1, 1, 1, 1, 1, 1, 1, 1, 1, 1, 1, 1, 1, 1, 1, 1, 1, 1, 1, 1]","[1099, 1295, 752, 728, 576, 720, 808, 689, 528, 551, 1359, 698, 1136, 1104, 600, 873, 776, 864, 760, 1030, 665]","['x-x-x', 'fringes', 'ones', 'nations', 'sell', 'sold', 'frank', 'pain', 'lady', 'info', 'channels', 'yes', 'rates', 'vain.', 'x-x-x', 'sun', 'plus', 'olive', 'term', 'read', 'sake.']",0.0-4.0-0.0,15,"[0, 0, 1, 1, 1, 0, 0, 1, 1, 1, 1, 1, 1, 1, 0, 1, 1, 1, 1, 0, 1]",,"[1099, 1295, 752, 728, 576, 720, 808, 689, 528, 551, 1359, 698, 1136, 1104, 600, 873, 776, 864, 760, 1030, 665]",A fireman was running to the scene of a fire carrying a heavy axe. He had to smash down a door.,,48351,4,maze,setup,"['A', 'fireman', 'was', 'running', 'to', 'the', 'scene', 'of', 'a', 'fire', 'carrying', 'a', 'heavy', 'axe.', 'He', 'had', 'to', 'smash', 'down', 'a', 'door.']",
941,i,"[1, 1, 1, 1, 1, 1, 1, 1, 1, 1, 1, 1, 1, 1, 1, 1, 1, 1, 1, 1, 1, 1, 1, 1, 1, 1]","[558, 856, 713, 583, 592, 760, 739, 581, 480, 489, 1343, 680, 736, 760, 639, 649, 864, 736, 680, 743, 737, 1960, 807, 568, 655, 624]","['x-x-x', 'lie', 'till', 'mark', 'week', 'ought', 'non', 'push', 'thus', 'ways', 'smart', 'send', 'ages', 'teams', 'mind', 'card', 'does', 'cites', 'lied', 'drug', 'tax', 'prices', 'rates', 'cash', 'cleric', 'sing.']",0.0-4.0-0.1,15,"[1, 0, 0, 0, 1, 0, 0, 1, 1, 0, 1, 1, 1, 1, 0, 1, 1, 0, 0, 1, 1, 1, 0, 0, 0, 1]",,"[558, 856, 713, 583, 592, 760, 739, 581, 480, 489, 1343, 680, 736, 760, 639, 649, 864, 736, 680, 743, 737, 1960, 807, 568, 655, 624]",When he got to the scene of the fire he found a door which had a very rusty lock and a door which was nailed shut.,,67891,5,maze,2-context,"['When', 'he', 'got', 'to', 'the', 'scene', 'of', 'the', 'fire', 'he', 'found', 'a', 'door', 'which', 'had', 'a', 'very', 'rusty', 'lock', 'and', 'a', 'door', 'which', 'was', 'nailed', 'shut.']",
941,i,"[1, 1, 1, 1, 1, 1, 1, 1, 1, 1, 1, 1, 1, 1]","[539, 760, 776, 496, 488, 519, 561, 592, 688, 816, 775, 881, 728, 464]","['x-x-x', 'modeled', 'apostle', 'lack', 'send', 'none', 'hope', 'sell', 'align', 'vary', 'week', 'debut', 'concerto', 'girl.']",0.0-4.0-0.2,15,"[0, 0, 1, 1, 0, 0, 0, 0, 1, 1, 0, 1, 1, 0]",,"[539, 760, 776, 496, 488, 519, 561, 592, 688, 816, 775, 881, 728, 464]",The fireman smashed down the door with the rusty lock but smoke overcame him.,,76979,6,maze,NP,"['The', 'fireman', 'smashed', 'down', 'the', 'door', 'with', 'the', 'rusty', 'lock', 'but', 'smoke', 'overcame', 'him.']",
941,i,,,,0.0-5.0,,,,,,,77981,7,html-button-response,,,
941,i,"[1, 1, 1, 1, 1, 1, 1, 1, 1, 1, 1, 1, 1, 1, 1, 1, 1, 1, 1]","[999, 840, 648, 1024, 808, 851, 589, 536, 696, 985, 775, 841, 735, 616, 976, 553, 839, 512, 1648]","['x-x-x', 'rest', 'ice', 'regulators', 'pull', 'runs', 'slow', 'code', 'race', 'case', 'road', 'along', 'sells.', 'x-x-x', 'holiday', 'bus', 'chips', 'walk', 'hire.']",0.0-6.0-0.0,32,"[0, 0, 0, 0, 1, 0, 1, 0, 0, 1, 0, 1, 0, 0, 1, 1, 1, 0, 0]",,"[999, 840, 648, 1024, 808, 851, 589, 536, 696, 985, 775, 841, 735, 616, 976, 553, 839, 512, 1648]",A man was decorating a room and had with him a large brush. He’d decided to paint a door.,,93459,8,maze,setup,"['A', 'man', 'was', 'decorating', 'a', 'room', 'and', 'had', 'with', 'him', 'a', 'large', 'brush.', 'He’d', 'decided', 'to', 'paint', 'a', 'door.']",
941,i,"[1, 1, 1, 1, 1, 1, 1, 1, 1, 1, 1, 1, 1, 1, 1, 1, 1, 1, 1, 1]","[539, 952, 568, 637, 465, 432, 631, 675, 560, 455, 665, 688, 528, 536, 592, 600, 784, 528, 776, 792]","['x-x-x', 'able', 'gave', 'proud', 'son', 'took', 'asks', 'terms', 'job', 'dog', 'knows', 'kings', 'days', 'talk', 'drug', 'army', 'agency', 'peace', 'election', 'aware.']",0.0-6.0-0.1,32,"[0, 1, 1, 1, 1, 0, 1, 1, 1, 0, 0, 0, 1, 1, 1, 1, 1, 0, 1, 1]",,"[539, 952, 568, 637, 465, 432, 631, 675, 560, 455, 665, 688, 528, 536, 592, 600, 784, 528, 776, 792]",In the room there was a door which had a large crack in it and a window which wouldn't close.,,105867,9,maze,1-context,"['In', 'the', 'room', 'there', 'was', 'a', 'door', 'which', 'had', 'a', 'large', 'crack', 'in', 'it', 'and', 'a', 'window', 'which', ""wouldn't"", 'close.']",
941,i,"[1, 1, 1, 1, 1, 1, 1, 1, 1, 1, 1, 1, 1, 1, 1, 1]","[508, 632, 1047, 616, 536, 576, 760, 544, 463, 608, 913, 592, 582, 1713, 825, 823]","['x-x-x', 'seen', 'weekend', 'tree', 'firms', 'bit', 'suck', 'fair', 'may', 'alone', 'forth', 'walk', 'code', 'won', 'ranked', 'union.']",0.0-6.0-0.2,32,"[0, 0, 0, 0, 1, 0, 1, 1, 0, 1, 1, 0, 1, 0, 1, 1]",,"[508, 632, 1047, 616, 536, 576, 760, 544, 463, 608, 913, 592, 582, 1713, 825, 823]",The man decided to paint the door with the large crack and do the window later.,,117610,10,maze,NP,"['The', 'man', 'decided', 'to', 'paint', 'the', 'door', 'with', 'the', 'large', 'crack', 'and', 'do', 'the', 'window', 'later.']",
941,i,,,,0.0-7.0,,,,,,,118612,11,html-button-response,,,
941,i,"[1, 1, 1, 1, 1, 1, 1, 1, 1, 1, 1, 1, 1, 1, 1, 1, 1]","[1640, 1272, 697, 718, 745, 592, 976, 992, 752, 1656, 576, 624, 705, 455, 720, 528, 632]","['x-x-x', 'bloodshed', 'nice', 'streets', 'award', 'eyes', 'produces', 'patience', 'lose', 'repay.', 'x-x-x', 'move', 'park', 'link', 'ladder', 'bet', 'ages.']",0.0-8.0-0.0,12,"[0, 1, 1, 0, 1, 1, 1, 1, 0, 1, 0, 0, 0, 0, 1, 0, 1]",,"[1640, 1272, 697, 718, 745, 592, 976, 992, 752, 1656, 576, 624, 705, 455, 720, 528, 632]",A caretaker was walking along a corridor carrying some nails. He’d been told to repair a door.,,132899,12,maze,setup,"['A', 'caretaker', 'was', 'walking', 'along', 'a', 'corridor', 'carrying', 'some', 'nails.', 'He’d', 'been', 'told', 'to', 'repair', 'a', 'door.']",
941,i,"[1, 1, 0, 1, 1, 1, 1, 1, 1, 1, 1, 1, 1, 1, 1, 1, 1, 1]","[555, 432, 1094, 1023, 578, 824, 519, 648, 568, 440, 568, 512, 560, 784, 662, 673, 616, 776]","['x-x-x', 'lady', 'week', 'dies', 'wants', 'sick', 'card', 'knows', 'foods', 'lots', 'trip', 'sex', 'rule', 'talks', 'spend', 'daughter', 'ages', 'catholic.']",0.0-8.0-0.1,12,"[1, 0, 1, 0, 0, 1, 1, 1, 1, 1, 0, 1, 0, 1, 0, 1, 1, 1]",,"[555, 432, 488, 1023, 578, 824, 519, 648, 568, 440, 568, 512, 560, 784, 662, 673, 616, 776]",He saw a door which had a large crack in it and a locker which wouldn't shut properly.,,144739,13,maze,1-context,"['He', 'saw', 'a', 'door', 'which', 'had', 'a', 'large', 'crack', 'in', 'it', 'and', 'a', 'locker', 'which', ""wouldn't"", 'shut', 'properly.']",
941,i,"[1, 1, 1, 1, 1, 1, 1, 1, 1, 1, 1, 1, 1, 1]","[556, 927, 592, 544, 407, 641, 616, 1152, 736, 1121, 599, 584, 2360, 568]","['x-x-x', 'rescinded', 'infinity', 'sell', 'none', 'want', 'than', 'ought', 'yes', 'mean', 'fact', 'seem', 'ages', 'weird.']",0.0-8.0-0.2,12,"[0, 1, 0, 1, 1, 0, 1, 0, 1, 1, 0, 0, 0, 0]",,"[556, 927, 592, 544, 407, 641, 616, 1152, 736, 1121, 599, 584, 2360, 568]",The caretaker repaired the door with the crack and then took a tea break.,,156146,14,maze,NP,"['The', 'caretaker', 'repaired', 'the', 'door', 'with', 'the', 'crack', 'and', 'then', 'took', 'a', 'tea', 'break.']",
941,i,,,,0.0-9.0,,,,,,,157148,15,html-button-response,,,
941,i,"[1, 1, 1, 1, 1, 1, 1, 1, 1, 1, 1, 1, 1, 1, 1, 1, 1, 1]","[607, 1090, 648, 960, 608, 736, 831, 801, 744, 1120, 1672, 616, 680, 712, 575, 952, 592, 1056]","['x-x-x', 'costs', 'heat', 'account', 'message', 'gone', 'colonel', 'march', 'edition', 'need', 'basemen', 'ours.', 'x-x-x', 'stupid', 'kill', 'bureau', 'read', 'pros.']",0.0-10.0-0.0,27,"[1, 0, 1, 0, 1, 1, 1, 0, 1, 1, 1, 0, 1, 0, 0, 1, 0, 1]",,"[607, 1090, 648, 960, 608, 736, 831, 801, 744, 1120, 1672, 616, 680, 712, 575, 952, 592, 1056]",A woman was looking through some clothes while holding some darning wool. She needed to repair a sock.,,172155,16,maze,setup,"['A', 'woman', 'was', 'looking', 'through', 'some', 'clothes', 'while', 'holding', 'some', 'darning', 'wool.', 'She', 'needed', 'to', 'repair', 'a', 'sock.']",
941,i,"[1, 1, 1, 1, 1, 1, 1, 1, 1, 1, 1, 1, 1, 1, 1, 1, 1, 1, 1, 1, 1, 1, 1, 1]","[442, 897, 632, 615, 609, 552, 592, 584, 1056, 600, 752, 576, 472, 479, 416, 593, 448, 976, 568, 552, 800, 632, 744, 752]","['x-x-x', 'worse', 'unit', 'kill', 'eats', 'pull', 'outcome', 'try', 'tabs', 'basis', 'west', 'camp', 'vary', 'love', 'drug', 'note', 'tax', 'breeds', 'coast', 'tour', 'weekend', 'site', 'via', 'maps.']",0.0-10.0-0.1,27,"[0, 1, 1, 0, 1, 1, 0, 0, 1, 0, 1, 0, 0, 1, 0, 1, 0, 0, 0, 0, 1, 1, 1, 0]",,"[442, 897, 632, 615, 609, 552, 592, 584, 1056, 600, 752, 576, 472, 479, 416, 593, 448, 976, 568, 552, 800, 632, 744, 752]",She found in the pile of clothes a sock which had a hole in it and a jumper which was getting a bit thin.,,187500,17,maze,1-context,"['She', 'found', 'in', 'the', 'pile', 'of', 'clothes', 'a', 'sock', 'which', 'had', 'a', 'hole', 'in', 'it', 'and', 'a', 'jumper', 'which', 'was', 'getting', 'a', 'bit', 'thin.']",
941,i,"[1, 1, 1, 1, 1, 1, 1, 1, 1, 1, 1, 1, 1, 1, 1]","[555, 439, 809, 689, 583, 577, 431, 481, 678, 1281, 496, 496, 623, 480, 496]","['x-x-x', 'apart', 'motorway', 'try', 'vivo', 'easy', 'west', 'amid', 'meet', 'pope', 'tour', 'exists', 'fun', 'ran', 'follows.']",0.0-10.0-0.2,27,"[0, 0, 0, 0, 1, 1, 0, 0, 1, 0, 0, 0, 1, 0, 0]",,"[555, 439, 809, 689, 583, 577, 431, 481, 678, 1281, 496, 496, 623, 480, 496]",The woman repaired the sock with the wool but hurt her finger in the process.,,196618,18,maze,VP,"['The', 'woman', 'repaired', 'the', 'sock', 'with', 'the', 'wool', 'but', 'hurt', 'her', 'finger', 'in', 'the', 'process.']",
941,i,,,,0.0-11.0,,,,,,,197620,19,html-button-response,,,
941,i,"[1, 1, 1, 1, 1, 1, 1, 1, 1, 1, 1, 1, 1, 1, 1, 1, 1]","[898, 1144, 1192, 976, 918, 618, 800, 585, 624, 1231, 832, 592, 712, 665, 752, 608, 520]","['x-x-x', 'pots', 'gold', 'took', 'thus', 'method', 'tons', 'teachers', 'rate', 'reap', 'earn.', 'x-x-x', 'door', 'foot', 'echinoderms', 'cup', 'sits.']",0.0-12.0-0.0,19,"[0, 0, 1, 1, 0, 0, 1, 0, 1, 1, 0, 0, 1, 1, 0, 0, 0]",,"[898, 1144, 1192, 976, 918, 618, 800, 585, 624, 1231, 832, 592, 712, 665, 752, 608, 520]",A vet went into an animal cage carrying a dart gun. He had to tranquilise a lion.,,211291,20,maze,setup,"['A', 'vet', 'went', 'into', 'an', 'animal', 'cage', 'carrying', 'a', 'dart', 'gun.', 'He', 'had', 'to', 'tranquilise', 'a', 'lion.']",
941,i,"[1, 0, 1, 1, 1, 1, 1, 1, 1, 1, 1, 1, 1, 1, 1, 1, 1, 1, 1, 1, 1, 1]","[659, 948, 786, 704, 480, 688, 496, 520, 728, 471, 1097, 576, 816, 448, 657, 455, 672, 592, 679, 449, 600, 1032]","['x-x-x', 'girl', 'warn', 'guess', 'fan', 'die', 'aids', 'same', 'cash', 'job', 'gets', 'alma', 'holy', 'tax', 'sans', 'poor', 'income', 'rich', 'list', 'plat', 'drug', 'met.']",0.0-12.0-0.1,19,"[1, 1, 0, 1, 0, 1, 0, 0, 1, 0, 1, 0, 1, 0, 1, 0, 1, 0, 1, 0, 1, 1]",,"[659, 416, 786, 704, 480, 688, 496, 520, 728, 471, 1097, 576, 816, 448, 657, 455, 672, 592, 679, 449, 600, 1032]",Inside the cage there was a lion that had a big mane and a lion that didn't have any mane at all.,,225851,21,maze,2-context,"['Inside', 'the', 'cage', 'there', 'was', 'a', 'lion', 'that', 'had', 'a', 'big', 'mane', 'and', 'a', 'lion', 'that', ""didn't"", 'have', 'any', 'mane', 'at', 'all.']",
941,i,"[1, 1, 1, 1, 1, 1, 1, 1, 1, 1, 1, 1, 1]","[484, 632, 1102, 457, 512, 488, 552, 672, 503, 537, 503, 600, 488]","['x-x-x', 'slid', 'minesweeping', 'loss', 'ours', 'same', 'add', 'quo', 'hoc', 'year', 'term', 'premiums', 'gone.']",0.0-12.0-0.2,19,"[0, 0, 1, 0, 0, 0, 1, 0, 1, 1, 0, 1, 0]",,"[484, 632, 1102, 457, 512, 488, 552, 672, 503, 537, 503, 600, 488]",The vet tranquilised the lion with the big mane and then examined it.,,233387,22,maze,NP,"['The', 'vet', 'tranquilised', 'the', 'lion', 'with', 'the', 'big', 'mane', 'and', 'then', 'examined', 'it.']",
941,i,,,,0.0-13.0,,,,,,,234389,23,html-button-response,,,
941,i,"[1, 1, 1, 1, 1, 1, 1, 1, 1, 1, 1, 1, 1, 1, 1, 1, 1, 1]","[552, 1367, 760, 494, 634, 448, 720, 592, 624, 503, 656, 865, 455, 672, 544, 776, 767, 673]","['x-x-x', 'mergers', 'aspects', 'nice', 'glad', 'adds', 'medicinal', 'know', 'kings.', 'x-x-x', 'lot', 'memories', 'lose', 'except', 'guy', 'denote', 'ones', 'celebrate.']",0.0-14.0-0.0,3,"[0, 1, 1, 0, 0, 0, 0, 1, 0, 0, 1, 1, 0, 1, 0, 1, 0, 1]",,"[552, 1367, 760, 494, 634, 448, 720, 592, 624, 503, 656, 865, 455, 672, 544, 776, 767, 673]",A convict escaped from his cell clutching a knife. He was prepared to attack a warden if necessary.,,246498,24,maze,setup,"['A', 'convict', 'escaped', 'from', 'his', 'cell', 'clutching', 'a', 'knife.', 'He', 'was', 'prepared', 'to', 'attack', 'a', 'warden', 'if', 'necessary.']",
941,i,"[1, 1, 1, 1, 1, 1, 1, 1, 1, 1, 1, 1, 1, 1, 1, 0, 1, 1]","[669, 517, 680, 563, 408, 967, 592, 448, 998, 417, 904, 408, 672, 574, 696, 2039, 1832, 1153]","['x-x-x', 'profile', 'dad', 'pre', 'am', 'waived', 'sources', 'oh', 'hates', 'us', 'owns', 'year', 'mean', 'optimism', 'eastern', 'vs', 'laws', 'canonized.']",0.0-14.0-0.1,3,"[1, 0, 0, 0, 0, 1, 0, 0, 0, 0, 1, 0, 1, 0, 1, 1, 1, 0]",,"[669, 517, 680, 563, 408, 967, 592, 448, 998, 417, 904, 408, 672, 574, 696, 401, 1832, 1153]",Once outside he saw a warden holding a bunch of keys and a warden holding a long truncheon.,,261043,25,maze,2-context,"['Once', 'outside', 'he', 'saw', 'a', 'warden', 'holding', 'a', 'bunch', 'of', 'keys', 'and', 'a', 'warden', 'holding', 'a', 'long', 'truncheon.']",
941,i,"[1, 1, 1, 1, 1, 1, 1, 1, 1, 1, 1, 1, 1]","[572, 608, 905, 703, 440, 637, 603, 536, 512, 752, 600, 744, 592]","['x-x-x', 'waivers', 'vacation', 'amicus', 'fund', 'done', 'loaned', 'miss', 'ago', 'meets', 'wonder', 'website', 'app.']",0.0-14.0-0.2,3,"[1, 0, 0, 1, 0, 1, 1, 0, 1, 0, 1, 1, 1]",,"[572, 608, 905, 703, 440, 637, 603, 536, 512, 752, 600, 744, 592]",The convict suddenly lunged at the warden with the keys before running off.,,269251,26,maze,NP,"['The', 'convict', 'suddenly', 'lunged', 'at', 'the', 'warden', 'with', 'the', 'keys', 'before', 'running', 'off.']",
941,i,,,,0.0-15.0,,,,,,,270254,27,html-button-response,,,
941,i,"[1, 1, 1, 1, 1, 1, 1, 1, 1, 1, 1, 1, 1, 1, 1, 1, 1, 1, 1, 1, 1]","[503, 600, 896, 720, 784, 456, 680, 576, 1032, 479, 840, 1424, 448, 464, 1272, 424, 472, 672, 528, 424, 463]","['x-x-x', 'videos', 'rid', 'loss', 'reasons', 'plan', 'done', 'assets', 'thrones', 'lost', 'maps', 'truth.', 'x-x-x', 'seat', 'temper', 'spot', 'cape', 'republic', 'doors', 'site', 'voices.']",0.0-16.0-0.0,28,"[1, 0, 1, 1, 1, 0, 1, 0, 0, 0, 1, 0, 0, 0, 1, 0, 0, 1, 0, 0, 1]",,"[503, 600, 896, 720, 784, 456, 680, 576, 1032, 479, 840, 1424, 448, 464, 1272, 424, 472, 672, 528, 424, 463]",A little boy was playing in a garden kicking a ball about. He was warned that he’d probably break a window.,,284419,28,maze,setup,"['A', 'little', 'boy', 'was', 'playing', 'in', 'a', 'garden', 'kicking', 'a', 'ball', 'about.', 'He', 'was', 'warned', 'that', 'he’d', 'probably', 'break', 'a', 'window.']",
941,i,"[1, 1, 1, 1, 1, 1, 1, 1, 1, 1, 1, 1, 1, 1, 1, 1, 1, 1, 1]","[611, 768, 721, 576, 480, 512, 576, 552, 440, 512, 616, 416, 582, 649, 619, 669, 801, 615, 760]","['x-x-x', 'huge', 'cast', 'slow', 'pull', 'phones', 'lives', 'ice', 'job', 'firms', 'cars', 'find', 'sex', 'law', 'behalf', 'wife', 'notice', 'song', 'pay.']",0.0-16.0-0.1,28,"[0, 0, 1, 1, 1, 0, 0, 1, 0, 0, 0, 0, 0, 1, 0, 1, 1, 1, 0]",,"[611, 768, 721, 576, 480, 512, 576, 552, 440, 512, 616, 416, 582, 649, 619, 669, 801, 615, 760]",Close to him was a window which had a crack in it and a window that looked very old.,,295899,29,maze,2-context,"['Close', 'to', 'him', 'was', 'a', 'window', 'which', 'had', 'a', 'crack', 'in', 'it', 'and', 'a', 'window', 'that', 'looked', 'very', 'old.']",
941,i,"[1, 1, 1, 1, 1, 1, 1, 1, 1, 1, 1, 1, 1, 1]","[516, 568, 703, 1498, 440, 543, 545, 640, 648, 614, 506, 760, 584, 528]","['x-x-x', 'gone', 'huge', 'significance', 'miles', 'did', 'behalf', 'join', 'role', 'occur', 'sex', 'wars', 'size', 'decade.']",0.0-16.0-0.2,28,"[1, 0, 1, 1, 0, 0, 1, 1, 1, 1, 1, 0, 0, 0]",,"[516, 568, 703, 1498, 440, 543, 545, 640, 648, 614, 506, 760, 584, 528]",The boy did accidentally break the window with the crack and ran home crying.,,304995,30,maze,NP,"['The', 'boy', 'did', 'accidentally', 'break', 'the', 'window', 'with', 'the', 'crack', 'and', 'ran', 'home', 'crying.']",
941,i,,,,0.0-17.0,,,,,,,305997,31,html-button-response,,,
941,i,"[1, 1, 1, 1, 1, 1, 1, 1, 1, 1, 1, 1, 1, 1, 1, 1, 1, 1]","[753, 934, 417, 696, 423, 664, 584, 616, 625, 1296, 864, 520, 520, 623, 392, 961, 416, 520]","['x-x-x', 'nets', 'loss', 'dollars', 'say', 'ran', 'applies', 'why', 'won', 'held', 'equip.', 'x-x-x', 'spot', 'nightmare', 'wall', 'skin', 'boy', 'fees.']",0.0-18.0-0.0,29,"[0, 1, 1, 1, 1, 1, 1, 0, 1, 0, 1, 1, 0, 0, 0, 1, 0, 0]",,"[753, 934, 417, 696, 423, 664, 584, 616, 625, 1296, 864, 520, 520, 623, 392, 961, 416, 520]",A chef was working in his kitchen by a food mixer. He was preparing to make a cake.,,317827,32,maze,setup,"['A', 'chef', 'was', 'working', 'in', 'his', 'kitchen', 'by', 'a', 'food', 'mixer.', 'He', 'was', 'preparing', 'to', 'make', 'a', 'cake.']",
941,i,"[1, 0, 1, 1, 1, 1, 1, 1, 1, 1, 1, 1, 1, 1, 1, 0, 1, 1, 1, 1, 1]","[539, 1389, 609, 384, 496, 472, 616, 431, 425, 744, 432, 384, 1033, 591, 656, 1359, 560, 664, 648, 536, 585]","['x-x-x', 'wall', 'took', 'kept', 'reached', 'son', 'basis', 'rose', 'size', 'null', 'win', 'cops', 'conclusion', 'audit', 'tweet', 'role', 'west', 'rely', 'impose', 'sort', 'est.']",0.0-18.0-0.1,29,"[1, 1, 0, 0, 0, 0, 1, 1, 0, 0, 0, 0, 0, 1, 0, 1, 1, 1, 0, 1, 0]",,"[539, 520, 609, 384, 496, 472, 616, 431, 425, 744, 432, 384, 1033, 591, 656, 505, 560, 664, 648, 536, 585]",Somebody came into the kitchen and asked him to bake a cake containing dried fruit and a cake topped with jam.,,331388,33,maze,2-context,"['Somebody', 'came', 'into', 'the', 'kitchen', 'and', 'asked', 'him', 'to', 'bake', 'a', 'cake', 'containing', 'dried', 'fruit', 'and', 'a', 'cake', 'topped', 'with', 'jam.']",
941,i,"[1, 1, 1, 1, 0, 1, 0, 1, 1, 1, 1, 1, 1, 1, 1, 1]","[537, 425, 664, 392, 1334, 551, 1374, 584, 478, 626, 673, 744, 824, 496, 521, 695]","['x-x-x', 'spam', 'dollars', 'sign', 'cell', 'west', 'ours', 'role', 'ran', 'peer', 'wards', 'war', 'inch', 'give', 'tell', 'grew.']",0.0-18.0-0.2,29,"[0, 0, 1, 0, 0, 1, 0, 0, 0, 1, 0, 1, 1, 0, 0, 1]",,"[537, 425, 664, 392, 544, 551, 496, 584, 478, 626, 673, 744, 824, 496, 521, 695]",The chef started to make the cake with the food mixer but ran out of eggs.,,342315,34,maze,VP,"['The', 'chef', 'started', 'to', 'make', 'the', 'cake', 'with', 'the', 'food', 'mixer', 'but', 'ran', 'out', 'of', 'eggs.']",
941,i,,,,0.0-19.0,,,,,,,343317,35,html-button-response,,,
941,i,"[1, 1, 1, 1, 1, 1, 1, 1, 1, 1, 1, 1, 1, 0, 1, 1, 1, 1, 1]","[921, 905, 407, 529, 430, 608, 489, 480, 416, 528, 559, 968, 576, 1399, 455, 657, 992, 440, 471]","['x-x-x', 'reactions', 'wind', 'billion', 'ice', 'went', 'causes', 'require', 'came', 'led', 'them', 'grandchild.', 'x-x-x', 'body', 'coast', 'heat', 'brain', 'foot', 'aware.']",0.0-20.0-0.0,31,"[1, 1, 0, 0, 0, 1, 0, 0, 0, 0, 1, 1, 1, 0, 0, 1, 1, 0, 0]",,"[921, 905, 407, 529, 430, 608, 489, 480, 416, 528, 559, 968, 576, 632, 455, 657, 992, 440, 471]",A detective was sitting at a window holding a set of binoculars. He’d been asked to watch a woman.,,355556,36,maze,setup,"['A', 'detective', 'was', 'sitting', 'at', 'a', 'window', 'holding', 'a', 'set', 'of', 'binoculars.', 'He’d', 'been', 'asked', 'to', 'watch', 'a', 'woman.']",
941,i,"[1, 1, 1, 1, 1, 1, 1, 1, 1, 1, 1, 1, 0, 1, 1, 1, 1, 1, 1, 1]","[475, 433, 719, 407, 399, 762, 416, 511, 416, 617, 663, 504, 1182, 920, 408, 657, 415, 616, 649, 1175]","['x-x-x', 'kept', 'gave', 'slow', 'true', 'million', 'park', 'march', 'bus', 'cell', 'apart', 'factors', 'site', 'insiders', 'wind', 'cost', 'costs', 'airport', 'year', 'honours.']",0.0-20.0-0.1,31,"[1, 0, 1, 0, 0, 0, 0, 0, 0, 1, 1, 0, 1, 0, 0, 1, 0, 1, 1, 0]",,"[475, 433, 719, 407, 399, 762, 416, 511, 416, 617, 663, 504, 383, 920, 408, 657, 415, 616, 649, 1175]",In the room he was looking into there was a woman holding a revolver and a man holding a grenade.,,367908,37,maze,1-context,"['In', 'the', 'room', 'he', 'was', 'looking', 'into', 'there', 'was', 'a', 'woman', 'holding', 'a', 'revolver', 'and', 'a', 'man', 'holding', 'a', 'grenade.']",
941,i,"[1, 1, 1, 1, 1, 1, 1, 1, 1, 1, 1, 1, 1, 1]","[539, 638, 857, 472, 632, 504, 592, 896, 600, 480, 472, 568, 794, 462]","['x-x-x', 'preparing', 'poverty', 'heat', 'meant', 'wood', 'year', 'reelection', 'poor', 'firm', 'size', 'cost', 'wants', 'land.']",0.0-20.0-0.2,31,"[1, 0, 1, 0, 1, 0, 1, 1, 1, 0, 0, 1, 1, 0]",,"[539, 638, 857, 472, 632, 504, 592, 896, 600, 480, 472, 568, 794, 462]",The detective watched the woman with the revolver and then made a phone call.,,376419,38,maze,NP,"['The', 'detective', 'watched', 'the', 'woman', 'with', 'the', 'revolver', 'and', 'then', 'made', 'a', 'phone', 'call.']",
941,i,,,,0.0-21.0,,,,,,,377420,39,html-button-response,,,
941,i,"[1, 1, 1, 1, 1, 1, 1, 1, 1, 1, 1, 1, 1, 1, 1, 1, 1]","[522, 64, 1488, 807, 617, 583, 568, 1240, 976, 559, 545, 528, 798, 530, 592, 441, 583]","['x-x-x', 'loans', 'text', 'anymore', 'learn', 'cup', 'option', 'funerals', 'list', 'deals', 'relate.', 'x-x-x', 'ford', 'trip', 'traverse', 'yes', 'decide.']",0.0-22.0-0.0,18,"[1, 0, 0, 1, 1, 0, 1, 1, 0, 0, 0, 1, 1, 1, 0, 0, 0]",,"[522, 64, 1488, 807, 617, 583, 568, 1240, 976, 559, 545, 528, 798, 530, 592, 441, 583]",A drunk was walking along a street wielding an empty bottle. He felt like smashing a window.,,388866,40,maze,setup,"['A', 'drunk', 'was', 'walking', 'along', 'a', 'street', 'wielding', 'an', 'empty', 'bottle.', 'He', 'felt', 'like', 'smashing', 'a', 'window.']",
941,i,"[1, 1, 1, 1, 1, 1, 1, 1, 1, 1, 1, 1, 1, 1, 1, 1, 1, 1, 1, 1]","[517, 736, 464, 464, 648, 704, 424, 600, 576, 383, 729, 400, 608, 537, 760, 760, 641, 823, 600, 424]","['x-x-x', 'shall', 'best', 'done', 'rate', 'wild', 'feel', 'abroad', 'self', 'risk', 'emerged', 'plays', 'list', 'gain', 'decide', 'worst', 'fun', 'yoga', 'province', 'idea.']",0.0-22.0-0.1,18,"[1, 1, 0, 0, 0, 1, 0, 0, 0, 0, 0, 0, 0, 1, 1, 1, 1, 1, 0, 0]",,"[517, 736, 464, 464, 648, 704, 424, 600, 576, 383, 729, 400, 608, 537, 760, 760, 641, 823, 600, 424]",In front of him he saw a window made of stained glass and a window which had bars covering it.,,400667,41,maze,2-context,"['In', 'front', 'of', 'him', 'he', 'saw', 'a', 'window', 'made', 'of', 'stained', 'glass', 'and', 'a', 'window', 'which', 'had', 'bars', 'covering', 'it.']",
941,i,"[1, 1, 1, 1, 1, 1, 1, 1, 1, 1, 1, 1, 1]","[539, 656, 784, 600, 624, 584, 601, 1759, 664, 552, 736, 520, 919]","['x-x-x', 'apart', 'clarify', 'cost', 'indeed', 'sure', 'trip', 'define', 'useful', 'ask', 'linguists', 'rate', 'resource.']",0.0-22.0-0.2,18,"[0, 1, 1, 1, 1, 1, 1, 1, 0, 0, 0, 1, 1]",,"[539, 656, 784, 600, 624, 584, 601, 1759, 664, 552, 736, 520, 919]",The drunk smashed the window with the empty bottle and staggered off laughing.,,410210,42,maze,VP,"['The', 'drunk', 'smashed', 'the', 'window', 'with', 'the', 'empty', 'bottle', 'and', 'staggered', 'off', 'laughing.']",
941,i,,,,0.0-23.0,,,,,,,411212,43,html-button-response,,,
941,i,"[1, 1, 1, 1, 1, 1, 1, 1, 1, 1, 1, 1, 1, 1, 1, 1, 1, 1, 1, 1, 1, 1, 1, 1, 1]","[673, 1233, 407, 648, 520, 376, 544, 496, 504, 432, 536, 1040, 414, 402, 735, 473, 744, 416, 457, 799, 617, 408, 511, 528, 440]","['x-x-x', 'capacities', 'cool', 'gold', 'text', 'sun', 'each', 'fat', 'does', 'feel', 'rate', 'overthrew.', 'x-x-x', 'move', 'ring', 'park', 'east', 'link', 'met', 'substances', 'reached', 'feet', 'starship', 'wear', 'calls.']",0.0-24.0-0.0,21,"[0, 0, 0, 1, 1, 1, 0, 1, 1, 0, 0, 0, 0, 0, 1, 0, 1, 0, 0, 0, 1, 0, 0, 1, 0]",,"[673, 1233, 407, 648, 520, 376, 544, 496, 504, 432, 536, 1040, 414, 402, 735, 473, 744, 416, 457, 799, 617, 408, 511, 528, 440]",A demolition man was on his way to work in his bulldozer. He’d been told to go to a particular address to demolish a house.,,425571,44,maze,setup,"['A', 'demolition', 'man', 'was', 'on', 'his', 'way', 'to', 'work', 'in', 'his', 'bulldozer.', 'He’d', 'been', 'told', 'to', 'go', 'to', 'a', 'particular', 'address', 'to', 'demolish', 'a', 'house.']",
941,i,"[1, 1, 1, 1, 1, 1, 0, 1, 1, 1, 1, 1, 1, 1, 1, 1, 1, 1, 1, 1, 1, 1, 1]","[427, 552, 336, 472, 584, 512, 1262, 767, 560, 464, 536, 1008, 808, 568, 449, 519, 481, 416, 672, 623, 544, 1001, 633]","['x-x-x', 'bed', 'uses', 'follows', 'wear', 'brown', 'walk', 'comes', 'super', 'push', 'step', 'comets', 'deployed', 'me', 'goes', 'anyway', 'pain', 'fear', 'except', 'trouble', 'data', 'ford', 'encoding.']",0.0-24.0-0.1,21,"[0, 0, 0, 1, 1, 0, 1, 1, 1, 0, 1, 1, 1, 0, 0, 1, 0, 0, 1, 1, 0, 0, 0]",,"[427, 552, 336, 472, 584, 512, 448, 767, 560, 464, 536, 1008, 808, 568, 449, 519, 481, 416, 672, 623, 544, 1001, 633]",Once at the address he found a house which had an ornate fountain in its garden and a house covered in fine carvings.,,439772,45,maze,2-context,"['Once', 'at', 'the', 'address', 'he', 'found', 'a', 'house', 'which', 'had', 'an', 'ornate', 'fountain', 'in', 'its', 'garden', 'and', 'a', 'house', 'covered', 'in', 'fine', 'carvings.']",
941,i,"[1, 1, 1, 1, 0, 1, 1, 1, 1, 1, 1, 1, 1, 1]","[539, 888, 833, 616, 1653, 568, 456, 440, 480, 640, 544, 656, 600, 640]","['x-x-x', 'yet', 'insulation', 'draw', 'maybe', 'pick', 'via', 'marathons', 'gay', 'deal', 'annual', 'fat', 'heard', 'our.']",0.0-24.0-0.2,21,"[1, 0, 1, 1, 1, 0, 0, 1, 0, 1, 0, 1, 0, 0]",,"[539, 888, 833, 616, 816, 568, 456, 440, 480, 640, 544, 656, 600, 640]",The man demolished the house with the bulldozer but it wasn't the right one.,,449332,46,maze,VP,"['The', 'man', 'demolished', 'the', 'house', 'with', 'the', 'bulldozer', 'but', 'it', ""wasn't"", 'the', 'right', 'one.']",
941,i,,,,0.0-25.0,,,,,,,450335,47,html-button-response,,,
941,i,"[1, 1, 1, 1, 1, 1, 1, 1, 1, 1, 1, 1, 1, 1, 1, 1, 1, 1, 1, 1, 0]","[664, 696, 632, 592, 560, 623, 456, 472, 535, 440, 664, 416, 736, 560, 512, 416, 544, 472, 487, 385, 1396]","['x-x-x', 'hurt', 'cool', 'reflect', 'lack', 'bag', 'ones', 'soul', 'laws', 'videos', 'brothers', 'plan', 'drew', 'unpaved.', 'x-x-x', 'saint', 'kid', 'types', 'guys', 'seem', 'info.']",0.0-26.0-0.0,10,"[1, 1, 1, 0, 1, 1, 0, 0, 1, 0, 1, 0, 1, 0, 1, 0, 1, 0, 0, 0, 0]",,"[664, 696, 632, 592, 560, 623, 456, 472, 535, 440, 664, 416, 736, 560, 512, 416, 544, 472, 487, 385, 575]",A man was walking up and down a dark street carrying an iron crowbar. He hoped to break into a shop.,,462602,48,maze,setup,"['A', 'man', 'was', 'walking', 'up', 'and', 'down', 'a', 'dark', 'street', 'carrying', 'an', 'iron', 'crowbar.', 'He', 'hoped', 'to', 'break', 'into', 'a', 'shop.']",
941,i,"[1, 1, 1, 1, 0, 1, 1, 0, 1, 1, 1, 1, 1, 1, 1, 1, 1, 1, 1, 1, 1, 1, 1]","[484, 720, 512, 505, 1262, 528, 720, 1790, 2512, 407, 751, 434, 575, 449, 680, 576, 601, 552, 926, 529, 432, 592, 440]","['x-x-x', 'obvious', 'hour', 'guess', 'bill', 'ran', 'info', 'apply', 'sea', 'note', 'starts', 'videos', 'sad', 'luck', 'upon', 'thinks', 'worst', 'holy', 'proves', 'hope', 'goes', 'inflict', 'lakes.']",0.0-26.0-0.1,10,"[1, 1, 0, 0, 1, 1, 1, 1, 1, 0, 1, 0, 1, 0, 1, 0, 1, 1, 1, 1, 0, 1, 0]",,"[484, 720, 512, 505, 432, 528, 720, 478, 2512, 407, 751, 434, 575, 449, 680, 576, 601, 552, 926, 529, 432, 592, 440]",He noticed that there was a shop which had a broken window and a post office which was fitted with a burglar alarm.,,479587,49,maze,1-context,"['He', 'noticed', 'that', 'there', 'was', 'a', 'shop', 'which', 'had', 'a', 'broken', 'window', 'and', 'a', 'post', 'office', 'which', 'was', 'fitted', 'with', 'a', 'burglar', 'alarm.']",
941,i,"[1, 1, 1, 1, 1, 1, 1, 1, 1, 1, 1, 1, 1, 1]","[532, 511, 760, 817, 382, 522, 527, 480, 760, 488, 487, 576, 592, 575]","['x-x-x', 'seen', 'roman', 'okay', 'send', 'plus', 'sure', 'grow', 'till', 'unease', 'non', 'gender', 'mid', 'hour.']",0.0-26.0-0.2,10,"[1, 0, 1, 1, 1, 0, 1, 1, 1, 0, 1, 0, 1, 1]",,"[532, 511, 760, 817, 382, 522, 527, 480, 760, 488, 487, 576, 592, 575]",The man broke into the shop with the iron crowbar but nobody saw him.,,487601,50,maze,VP,"['The', 'man', 'broke', 'into', 'the', 'shop', 'with', 'the', 'iron', 'crowbar', 'but', 'nobody', 'saw', 'him.']",
941,i,,,,0.0-27.0,,,,,,,488604,51,html-button-response,,,
941,i,"[1, 1, 1, 1, 1, 1, 1, 1, 1, 1, 1, 1, 1, 1, 1, 1, 1]","[570, 848, 735, 552, 496, 449, 518, 761, 567, 392, 561, 616, 520, 392, 648, 534, 794]","['x-x-x', 'photos', 'hottest', 'luck', 'defenses', 'know', 'aliens', 'omissions', 'wish', 'elect.', 'x-x-x', 'body', 'coast', 'link', 'cubs', 'ring', 'courts.']",0.0-28.0-0.0,8,"[0, 0, 0, 1, 0, 0, 0, 0, 1, 0, 0, 1, 1, 0, 1, 1, 1]",,"[570, 848, 735, 552, 496, 449, 518, 761, 567, 392, 561, 616, 520, 392, 648, 534, 794]",A window cleaner was climbing his ladder clutching a cloth. He’d been asked to wipe a window.,,498563,52,maze,setup,"['A', 'window', 'cleaner', 'was', 'climbing', 'his', 'ladder', 'clutching', 'a', 'cloth.', 'He’d', 'been', 'asked', 'to', 'wipe', 'a', 'window.']",
941,i,"[1, 1, 1, 1, 1, 1, 1, 1, 1, 1, 1, 1, 1, 1, 1, 1, 1, 1, 1, 1, 1, 1, 1, 1, 1, 1]","[468, 520, 456, 512, 488, 472, 552, 624, 553, 477, 611, 622, 537, 518, 777, 433, 478, 553, 512, 777, 472, 792, 648, 647, 584, 489]","['x-x-x', 'fact', 'god', 'termed', 'mind', 'mid', 'week', 'worry', 'page', 'says', 'awards', 'apply', 'mom', 'know', 'else', 'van', 'euro', 'gift', 'sold', 'male', 'pro', 'accords', 'rates', 'cash', 'statistics', 'agree.']",0.0-28.0-0.1,8,"[1, 1, 1, 0, 1, 1, 1, 1, 0, 1, 1, 1, 0, 0, 1, 1, 1, 0, 0, 0, 1, 0, 0, 1, 0, 0]",,"[468, 520, 456, 512, 488, 472, 552, 624, 553, 477, 611, 622, 537, 518, 777, 433, 478, 553, 512, 777, 472, 792, 648, 647, 584, 489]",Once up the ladder he saw that there was a window which had a lot of dirt on it and a skylight which was relatively clean.,,513140,53,maze,1-context,"['Once', 'up', 'the', 'ladder', 'he', 'saw', 'that', 'there', 'was', 'a', 'window', 'which', 'had', 'a', 'lot', 'of', 'dirt', 'on', 'it', 'and', 'a', 'skylight', 'which', 'was', 'relatively', 'clean.']",
941,i,"[1, 1, 1, 1, 1, 1, 1, 1, 1, 0, 1, 1, 1]","[435, 520, 496, 664, 456, 440, 448, 409, 528, 1004, 1146, 504, 817]","['x-x-x', 'afford', 'insulin', 'pence', 'gift', 'belong', 'hope', 'wish', 'seeks', 'worry', 'deserve', 'kill', 'percent.']",0.0-28.0-0.2,8,"[1, 0, 0, 1, 1, 0, 1, 0, 1, 1, 1, 0, 1]",,"[435, 520, 496, 664, 456, 440, 448, 409, 528, 496, 1146, 504, 817]",The window cleaner wiped the window with the dirt while singing to himself.,,521011,54,maze,NP,"['The', 'window', 'cleaner', 'wiped', 'the', 'window', 'with', 'the', 'dirt', 'while', 'singing', 'to', 'himself.']",
941,i,,,,0.0-29.0,,,,,,,522014,55,html-button-response,,,
941,i,"[0, 1, 1, 1, 1, 1, 1, 1, 1, 1, 1, 1, 1, 1, 1]","[1463, 639, 1232, 761, 528, 848, 496, 447, 545, 704, 400, 704, 576, 472, 759]","['x-x-x', 'raiders', 'ones', 'terminate', 'same', 'rioted', 'abuses.', 'x-x-x', 'guy', 'worry', 'sun', 'loud', 'lie', 'non', 'findings.']",0.0-30.0-0.0,17,"[1, 0, 1, 0, 0, 1, 1, 1, 0, 0, 0, 0, 1, 0, 1]",,"[545, 639, 1232, 761, 528, 848, 496, 447, 545, 704, 400, 704, 576, 472, 759]",A chemist was adjusting a bunsen burner. He was about to heat up a solution.,,532595,56,maze,setup,"['A', 'chemist', 'was', 'adjusting', 'a', 'bunsen', 'burner.', 'He', 'was', 'about', 'to', 'heat', 'up', 'a', 'solution.']",
941,i,"[1, 1, 1, 1, 1, 1, 1, 1, 1, 1, 1, 1, 1, 1, 1, 1, 1, 1, 1]","[451, 545, 1280, 632, 672, 408, 728, 511, 481, 712, 672, 480, 536, 536, 568, 688, 528, 641, 527]","['x-x-x', 'ring', 'ought', 'worse', 'cat', 'die', 'diseases', 'lives', 'girl', 'kiss', 'robotics', 'sea', 'hurt', 'gay', 'army', 'granted', 'physicians', 'ride', 'pier.']",0.0-30.0-0.1,17,"[0, 0, 0, 1, 1, 0, 0, 0, 0, 0, 0, 0, 0, 0, 1, 0, 0, 0, 0]",,"[451, 545, 1280, 632, 672, 408, 728, 511, 481, 712, 672, 480, 536, 536, 568, 688, 528, 641, 527]",On his bench there was a solution which had blue crystals in it and a powder containing red dye.,,544195,57,maze,1-context,"['On', 'his', 'bench', 'there', 'was', 'a', 'solution', 'which', 'had', 'blue', 'crystals', 'in', 'it', 'and', 'a', 'powder', 'containing', 'red', 'dye.']",
941,i,"[1, 1, 1, 0, 1, 1, 1, 1, 1, 1, 1, 1, 1, 1]","[444, 631, 744, 1333, 560, 674, 646, 496, 600, 512, 449, 607, 648, 577]","['x-x-x', 'expands', 'brakes', 'gain', 'becoming', 'fear', 'park', 'haunts', 'weddings', 'fun', 'ride', 'mum', 'nice', 'mark.']",0.0-30.0-0.2,17,"[0, 1, 1, 1, 1, 0, 0, 0, 0, 0, 0, 0, 1, 1]",,"[444, 631, 744, 472, 560, 674, 646, 496, 600, 512, 449, 607, 648, 577]",The chemist heated the solution with the bunsen burner but the gas went out.,,553124,58,maze,VP,"['The', 'chemist', 'heated', 'the', 'solution', 'with', 'the', 'bunsen', 'burner', 'but', 'the', 'gas', 'went', 'out.']",
941,i,,,,0.0-31.0,,,,,,,554125,59,html-button-response,,,
941,i,"[1, 1, 1, 1, 1, 1, 1, 1, 1, 1, 1, 1, 1, 1, 1, 1, 1, 1]","[577, 511, 747, 660, 440, 881, 646, 617, 945, 447, 576, 592, 504, 471, 514, 552, 432, 504]","['x-x-x', 'revolts', 'liquids', 'deal', 'cat', 'freemen', 'expenses', 'lose', 'whom.', 'x-x-x', 'feelings', 'bag', 'than', 'says', 'kid', 'imagine', 'mom', 'versa.']",0.0-32.0-0.0,9,"[0, 0, 1, 0, 0, 1, 1, 1, 1, 0, 1, 1, 1, 0, 1, 0, 0, 0]",,"[577, 511, 747, 660, 440, 881, 646, 617, 945, 447, 576, 592, 504, 471, 514, 552, 432, 504]",A workman climbed down a manhole carrying a saw. He expected to have to cut through a valve.,,564748,60,maze,setup,"['A', 'workman', 'climbed', 'down', 'a', 'manhole', 'carrying', 'a', 'saw.', 'He', 'expected', 'to', 'have', 'to', 'cut', 'through', 'a', 'valve.']",
941,i,"[1, 1, 1, 1, 1, 1, 1, 1, 1, 1, 1, 1, 1, 1, 1, 0, 1, 1, 1, 1, 1, 1, 1]","[506, 704, 576, 520, 614, 570, 855, 551, 486, 449, 513, 617, 536, 592, 552, 1046, 585, 672, 528, 391, 553, 616, 576]","['x-x-x', 'wait', 'aspired', 'sure', 'truth', 'lot', 'acids', 'sorry', 'hill', 'page', 'jobs', 'lake', 'cubs', 'list', 'hour', 'god', 'laws', 'ethnic', 'goals', 'male', 'vote', 'rallies', 'sell.']",0.0-32.0-0.1,9,"[0, 1, 1, 1, 1, 1, 1, 1, 1, 0, 1, 0, 1, 0, 0, 0, 0, 0, 0, 0, 0, 0, 1]",,"[506, 704, 576, 520, 614, 570, 855, 551, 486, 449, 513, 617, 536, 592, 552, 512, 585, 672, 528, 391, 553, 616, 576]",Down the manhole he found a valve which had a lot of rust on it and a valve which had been leaking gas.,,578363,61,maze,2-context,"['Down', 'the', 'manhole', 'he', 'found', 'a', 'valve', 'which', 'had', 'a', 'lot', 'of', 'rust', 'on', 'it', 'and', 'a', 'valve', 'which', 'had', 'been', 'leaking', 'gas.']",
941,i,"[1, 1, 1, 1, 1, 0, 1, 1, 1, 1, 1, 0, 1, 1]","[411, 529, 487, 489, 503, 1303, 704, 399, 625, 545, 616, 1287, 672, 616]","['x-x-x', 'denoted', 'sad', 'imagine', 'okay', 'forth', 'poor', 'says', 'pays', 'senate', 'studios', 'buy', 'guys', 'him.']",0.0-32.0-0.2,9,"[0, 0, 0, 0, 0, 1, 1, 0, 1, 0, 1, 1, 1, 0]",,"[411, 529, 487, 489, 503, 433, 704, 399, 625, 545, 616, 480, 672, 616]",The workman cut through the valve with the saw before fitting a new one.,,587556,62,maze,VP,"['The', 'workman', 'cut', 'through', 'the', 'valve', 'with', 'the', 'saw', 'before', 'fitting', 'a', 'new', 'one.']",
941,i,,,,0.0-33.0,,,,,,,588558,63,html-button-response,,,
941,i,"[1, 1, 1, 1, 1, 1, 1, 1, 1, 1, 1, 1, 1, 1, 1, 1, 1, 1, 1, 0, 1, 1, 1, 1, 1]","[672, 672, 512, 616, 624, 608, 535, 569, 527, 632, 585, 480, 447, 600, 504, 1177, 624, 560, 615, 1391, 496, 1264, 528, 656, 472]","['x-x-x', 'drinks', 'guys', 'anymore', 'push', 'eat', 'apply', 'nations', 'non', 'goes', 'spite.', 'x-x-x', 'else', 'am', 'throws', 'symbolizing', 'lots', 'hill', 'wood', 'basis', 'same', 'sizes', 'gift', 'hear', 'beings.']",0.0-34.0-0.0,7,"[1, 1, 0, 0, 1, 1, 0, 0, 1, 0, 1, 0, 0, 1, 0, 1, 1, 1, 0, 0, 0, 1, 0, 1, 0]",,"[672, 672, 512, 616, 624, 608, 535, 569, 527, 632, 585, 480, 447, 600, 504, 1177, 624, 560, 615, 537, 496, 1264, 528, 656, 472]",An artist was working at a table holding a long brush. He had a sudden premonition that he was going to knock over a bottle.,,604931,64,maze,setup,"['An', 'artist', 'was', 'working', 'at', 'a', 'table', 'holding', 'a', 'long', 'brush.', 'He', 'had', 'a', 'sudden', 'premonition', 'that', 'he', 'was', 'going', 'to', 'knock', 'over', 'a', 'bottle.']",
941,i,"[1, 1, 1, 1, 1, 1, 1, 1, 1, 1, 1, 1, 1, 1, 1, 1, 1]","[475, 657, 472, 584, 416, 425, 406, 825, 568, 545, 408, 432, 600, 552, 568, 560, 640]","['x-x-x', 'bag', 'aware', 'sorry', 'okay', 'knew', 'abroad', 'interviews', 'bill', 'relax', 'ask', 'vote', 'blame', 'vows', 'defend', 'move', 'agree.']",0.0-34.0-0.1,7,"[0, 1, 0, 1, 0, 0, 0, 1, 0, 0, 0, 0, 1, 1, 0, 1, 1]",,"[475, 657, 472, 584, 416, 425, 406, 825, 568, 545, 408, 432, 600, 552, 568, 560, 640]",On the table there was a bottle containing some paint and a small jug filled with water.,,614068,65,maze,1-context,"['On', 'the', 'table', 'there', 'was', 'a', 'bottle', 'containing', 'some', 'paint', 'and', 'a', 'small', 'jug', 'filled', 'with', 'water.']",
941,i,"[1, 1, 1, 1, 1, 1, 1, 1, 1, 1, 1, 1, 1]","[403, 616, 504, 640, 405, 570, 368, 544, 696, 407, 560, 696, 769]","['x-x-x', 'anyway', 'barristers', 'verdict', 'mean', 'wish', 'depend', 'hear', 'knew', 'meets', 'wait', 'ethic', 'barrow.']",0.0-34.0-0.2,7,"[0, 1, 0, 1, 0, 1, 0, 1, 1, 0, 1, 1, 1]",,"[403, 616, 504, 640, 405, 570, 368, 544, 696, 407, 560, 696, 769]",The artist accidently knocked over the bottle with the brush and swore loudly.,,621252,66,maze,VP,"['The', 'artist', 'accidently', 'knocked', 'over', 'the', 'bottle', 'with', 'the', 'brush', 'and', 'swore', 'loudly.']",
941,i,,,,0.0-35.0,,,,,,,622254,67,html-button-response,,,
941,i,,,,0.0-36.0,,,"{'other': 'N/A', 'errors': 'No.', 'length': ""Shorter would be better; I found myself making wrong key presses even though I knew what the right word was. Like my brain would just 'short-circuit' a moment here and there unless I took a few second break between stories."", 'strange': 'No.', 'understand': 'Yes, nothing confusing', 'what-about': 'Pattern recognition by the brain'}",86858,,,709118,68,survey-text,,,
941,i,,,,0.0-37.0,,,0,1286,,<h2>Many thanks for participating!</h2><p>We are interested in how people integrate the words they read into the context of the sentence so far.<h1>Press continue to be redirected to Prolific. </h1>,710405,69,html-button-response,,,
942,i,,,,0.0-0.0,,,0,988,," <center><img width=""300px"" src=""assets/stanford.png"" /></center><div id=""legal""></br>By answering the following questions, you are participating in a study being performed by cognitive scientists in the Stanford Department of Psychology. If you have questions about this research, please contact us at  <a href=""mailto://languagecoglab@gmail.com.""> languagecoglab@gmail.com</a>.You must be at least 18 years old to participate. Your participation in this research is voluntary. You may decline to answer any or all of the following questions. You may decline further participation, at any time, without adverse consequences. Your anonymity is assured; the researchers who have requested your participation will not receive any personal information about you. </div></br>",992,0,html-button-response,,,
942,i,,,,0.0-1.0,,,0,16952,,"<h3>Please read these instructions carefully!</h3> </br><p>For this experiment, please place your <b>left index finger on the 'e' key</b> and your <b>right index finger on the 'i' key</b>.</p><p> You will read sentences word by word. However, you will have to guess which word comes next. On each screen you will see two options: one will be the next word in the sentence, and one will not. </p><p><b>Select the word that continues the sentence by pressing 'e' (left-hand) for the word on the left or pressing 'i' (right-hand) for the word on the right.</b></p><p>Select the best word as quickly as you can, but without making too many errors. </p><div><p>Click ""Continue"" to try this on a practice sentence.</p></div>",17945,1,html-button-response,,,
942,i,"[0, 1, 1, 1, 1, 1, 1, 1, 1, 1, 1, 1, 1, 1]","[3668, 727, 847, 1023, 589, 626, 584, 551, 1009, 1098, 1068, 725, 502, 570]","['x-x-x', 'whom', 'knew', 'appeared', 'emotions', 'know', 'dad', 'lake', 'edition', 'jack', 'fans', 'fund', 'grow', 'died.']",0.0-2.0,,"[1, 1, 0, 1, 0, 1, 0, 1, 1, 0, 0, 0, 0, 0]",,"[2368, 727, 847, 1023, 589, 626, 584, 551, 1009, 1098, 1068, 725, 502, 570]",,,31589,2,maze,,"['This', 'is', 'a', 'practice', 'sentence', 'that', 'you', 'are', 'reading', 'one', 'word', 'at', 'a', 'time.']",
942,i,,,,0.0-3.0,,,0,3845,,"<h3>Please read these instructions carefully!</h3> </br><p>Great job! Now you are ready for the main experiment.</p><p> You will now read 16 short stories in the same word-by-word way.</p><div><p>Click ""Continue"" to start the experiment.</p>",35435,3,html-button-response,,,
942,i,"[1, 1, 1, 1, 1, 1, 1, 1, 1, 1, 1, 1, 1, 1, 1, 1, 1, 1, 1, 1, 1, 1, 1, 1, 1]","[1348, 870, 574, 848, 508, 446, 1149, 1029, 737, 865, 1108, 673, 726, 603, 1256, 1480, 548, 585, 446, 680, 422, 793, 514, 450, 593]","['x-x-x', 'drinks', 'guys', 'anymore', 'push', 'eat', 'apply', 'nations', 'non', 'goes', 'spite.', 'x-x-x', 'else', 'am', 'throws', 'symbolizing', 'lots', 'hill', 'wood', 'basis', 'same', 'sizes', 'gift', 'hear', 'beings.']",0.0-4.0-0.0,7,"[0, 1, 0, 1, 0, 0, 0, 0, 0, 1, 1, 0, 0, 0, 0, 0, 0, 0, 0, 1, 0, 1, 0, 0, 0]",,"[1348, 870, 574, 848, 508, 446, 1149, 1029, 737, 865, 1108, 673, 726, 603, 1256, 1480, 548, 585, 446, 680, 422, 793, 514, 450, 593]",An artist was working at a table holding a long brush. He had a sudden premonition that he was going to knock over a bottle.,,54691,4,maze,setup,"['An', 'artist', 'was', 'working', 'at', 'a', 'table', 'holding', 'a', 'long', 'brush.', 'He', 'had', 'a', 'sudden', 'premonition', 'that', 'he', 'was', 'going', 'to', 'knock', 'over', 'a', 'bottle.']",
942,i,"[1, 1, 1, 1, 1, 1, 1, 1, 1, 1, 1, 1, 1, 1, 1, 1]","[732, 1010, 618, 633, 442, 668, 1232, 829, 682, 884, 592, 583, 1226, 717, 672, 2169]","['x-x-x', 'bag', 'aware', 'sorry', 'okay', 'knew', 'abroad', 'interviews', 'bill', 'relax', 'ask', 'vote', 'blame', 'defend', 'move', 'agree.']",0.0-4.0-0.1,7,"[1, 1, 0, 0, 0, 1, 1, 1, 1, 1, 0, 0, 1, 0, 1, 1]",,"[732, 1010, 618, 633, 442, 668, 1232, 829, 682, 884, 592, 583, 1226, 717, 672, 2169]",On the table there was a bottle containing some paint and a bottle filled with water.,,68398,5,maze,2-context,"['On', 'the', 'table', 'there', 'was', 'a', 'bottle', 'containing', 'some', 'paint', 'and', 'a', 'bottle', 'filled', 'with', 'water.']",
942,i,"[1, 1, 1, 1, 1, 1, 1, 1, 1, 1, 1, 1, 1]","[627, 693, 791, 2006, 542, 731, 538, 655, 587, 589, 458, 599, 561]","['x-x-x', 'anyway', 'barristers', 'verdict', 'mean', 'wish', 'depend', 'hear', 'knew', 'meets', 'wait', 'ethic', 'barrow.']",0.0-4.0-0.2,7,"[1, 0, 1, 0, 0, 1, 0, 0, 1, 0, 0, 1, 0]",,"[627, 693, 791, 2006, 542, 731, 538, 655, 587, 589, 458, 599, 561]",The artist accidently knocked over the bottle with the brush and swore loudly.,,77785,6,maze,VP,"['The', 'artist', 'accidently', 'knocked', 'over', 'the', 'bottle', 'with', 'the', 'brush', 'and', 'swore', 'loudly.']",
942,i,,,,0.0-5.0,,,,,,,78788,7,html-button-response,,,
942,i,"[1, 1, 1, 1, 1, 1, 1, 1, 1, 1, 1, 1, 1, 1, 1, 1, 1, 1, 0, 1]","[575, 1028, 815, 683, 685, 759, 531, 1057, 790, 787, 1950, 700, 841, 553, 734, 915, 623, 1559, 1855, 741]","['x-x-x', 'disagreements', 'decade', 'lake', 'heard', 'democrat', 'miss', 'attest', 'vain.', 'x-x-x', 'emplacements', 'carol', 'lady', 'jack', 'mouth', 'anti', 'hill', 'cops', 'bag', 'nor.']",0.0-6.0-0.0,4,"[0, 0, 1, 1, 1, 1, 1, 0, 1, 0, 0, 1, 1, 0, 1, 1, 1, 0, 1, 0]",,"[575, 1028, 815, 683, 685, 759, 531, 1057, 790, 787, 1950, 700, 841, 553, 734, 915, 623, 1559, 529, 741]",A schoolteacher walked into class carrying a bamboo cane. He sadistically hoped that he would have to beat a boy.,,96994,8,maze,setup,"['A', 'schoolteacher', 'walked', 'into', 'class', 'carrying', 'a', 'bamboo', 'cane.', 'He', 'sadistically', 'hoped', 'that', 'he', 'would', 'have', 'to', 'beat', 'a', 'boy.']",
942,i,"[1, 1, 1, 1, 1, 1, 1, 1, 1, 1, 1, 1, 1, 1, 1, 1, 1, 1, 1, 1, 1, 1, 1]","[531, 885, 501, 740, 556, 527, 570, 1179, 847, 529, 950, 882, 576, 598, 1175, 514, 1585, 719, 647, 639, 733, 906, 766]","['x-x-x', 'deserved', 'okay', 'luck', 'jack', 'miss', 'nor', 'ways', 'mid', 'sale', 'prices', 'via', 'tax', 'vs', 'till', 'anti', 'sour', 'achieve', 'market', 'types', 'al', 'soul', 'plus.']",0.0-6.0-0.1,4,"[0, 1, 0, 0, 1, 0, 1, 1, 1, 0, 0, 0, 0, 1, 1, 0, 0, 1, 0, 1, 1, 1, 1]",,"[531, 885, 501, 740, 556, 527, 570, 1179, 847, 529, 950, 882, 576, 598, 1175, 514, 1585, 719, 647, 639, 733, 906, 766]",On entering he saw that a boy who had a broken leg and a boy who wore glasses didn't stand up for him.,,114557,9,maze,2-context,"['On', 'entering', 'he', 'saw', 'that', 'a', 'boy', 'who', 'had', 'a', 'broken', 'leg', 'and', 'a', 'boy', 'who', 'wore', 'glasses', ""didn't"", 'stand', 'up', 'for', 'him.']",
942,i,"[1, 1, 1, 1, 1, 1, 1, 1, 1, 1, 1, 1, 1, 1, 1]","[741, 935, 776, 554, 604, 656, 1097, 900, 606, 561, 723, 744, 703, 591, 927]","['x-x-x', 'characterised', 'anti', 'seem', 'nor', 'date', 'know', 'exists', 'vary', 'fact', 'sale', 'via', 'global', 'wars', 'laws.']",0.0-6.0-0.2,4,"[0, 1, 0, 0, 1, 0, 1, 0, 1, 1, 0, 1, 0, 1, 0]",,"[741, 935, 776, 554, 604, 656, 1097, 900, 606, 561, 723, 744, 703, 591, 927]",The schoolteacher beat the boy with the bamboo cane but the boy didn't cry out.,,125685,10,maze,VP,"['The', 'schoolteacher', 'beat', 'the', 'boy', 'with', 'the', 'bamboo', 'cane', 'but', 'the', 'boy', ""didn't"", 'cry', 'out.']",
942,i,,,,0.0-7.0,,,,,,,126702,11,html-button-response,,,
942,i,"[1, 1, 1, 1, 1, 1, 1, 1, 1, 1, 1, 1, 1, 1, 1, 1, 1, 1, 1]","[524, 601, 631, 981, 565, 582, 629, 718, 959, 914, 539, 760, 526, 597, 759, 730, 646, 499, 878]","['x-x-x', 'rest', 'ice', 'regulators', 'pull', 'runs', 'slow', 'code', 'race', 'case', 'road', 'along', 'sells.', 'x-x-x', 'holiday', 'bus', 'chips', 'walk', 'hire.']",0.0-8.0-0.0,32,"[1, 0, 1, 0, 1, 0, 1, 1, 1, 1, 1, 0, 0, 1, 1, 0, 1, 1, 1]",,"[524, 601, 631, 981, 565, 582, 629, 718, 959, 914, 539, 760, 526, 597, 759, 730, 646, 499, 878]",A man was decorating a room and had with him a large brush. He’d decided to paint a door.,,139772,12,maze,setup,"['A', 'man', 'was', 'decorating', 'a', 'room', 'and', 'had', 'with', 'him', 'a', 'large', 'brush.', 'He’d', 'decided', 'to', 'paint', 'a', 'door.']",
942,i,"[1, 1, 1, 0, 1, 1, 1, 1, 1, 1, 1, 1, 1, 1, 1, 1, 1, 1, 1, 1]","[564, 752, 609, 1827, 687, 601, 587, 584, 875, 440, 1058, 799, 614, 521, 745, 565, 837, 859, 764, 728]","['x-x-x', 'able', 'gave', 'proud', 'son', 'took', 'asks', 'terms', 'job', 'dog', 'knows', 'kings', 'days', 'talk', 'drug', 'army', 'agency', 'peace', 'election', 'aware.']",0.0-8.0-0.1,32,"[0, 0, 0, 0, 1, 1, 0, 0, 0, 0, 0, 1, 1, 1, 1, 0, 1, 1, 1, 0]",,"[564, 752, 609, 557, 687, 601, 587, 584, 875, 440, 1058, 799, 614, 521, 745, 565, 837, 859, 764, 728]",In the room there was a door which had a large crack in it and a window which wouldn't close.,,154801,13,maze,1-context,"['In', 'the', 'room', 'there', 'was', 'a', 'door', 'which', 'had', 'a', 'large', 'crack', 'in', 'it', 'and', 'a', 'window', 'which', ""wouldn't"", 'close.']",
942,i,"[1, 1, 1, 1, 1, 1, 1, 1, 1, 1, 1, 1, 1, 1, 1, 1]","[624, 1157, 1037, 643, 705, 562, 847, 765, 558, 1268, 451, 600, 632, 644, 1224, 896]","['x-x-x', 'seen', 'weekend', 'tree', 'firms', 'bit', 'suck', 'fair', 'may', 'alone', 'forth', 'walk', 'code', 'won', 'ranked', 'union.']",0.0-8.0-0.2,32,"[1, 1, 1, 0, 0, 1, 1, 0, 0, 1, 0, 1, 0, 0, 0, 0]",,"[624, 1157, 1037, 643, 705, 562, 847, 765, 558, 1268, 451, 600, 632, 644, 1224, 896]",The man decided to paint the door with the large brush and do the window later.,,167423,14,maze,VP,"['The', 'man', 'decided', 'to', 'paint', 'the', 'door', 'with', 'the', 'large', 'brush', 'and', 'do', 'the', 'window', 'later.']",
942,i,,,,0.0-9.0,,,,,,,168434,15,html-button-response,,,
942,i,"[1, 1, 1, 1, 1, 1, 1, 1, 1, 1, 1, 1, 1, 1, 1, 1, 1, 1, 1, 0, 1]","[376, 760, 651, 602, 599, 586, 854, 590, 1303, 632, 713, 563, 1279, 939, 549, 520, 656, 800, 639, 1823, 712]","['x-x-x', 'hurt', 'cool', 'reflect', 'lack', 'bag', 'ones', 'soul', 'laws', 'videos', 'brothers', 'plan', 'drew', 'unpaved.', 'x-x-x', 'saint', 'kid', 'types', 'guys', 'seem', 'info.']",0.0-10.0-0.0,10,"[0, 1, 1, 1, 0, 1, 1, 1, 0, 1, 0, 0, 0, 1, 0, 0, 0, 1, 0, 1, 1]",,"[376, 760, 651, 602, 599, 586, 854, 590, 1303, 632, 713, 563, 1279, 939, 549, 520, 656, 800, 639, 513, 712]",A man was walking up and down a dark street carrying an iron crowbar. He hoped to break into a shop.,,184597,16,maze,setup,"['A', 'man', 'was', 'walking', 'up', 'and', 'down', 'a', 'dark', 'street', 'carrying', 'an', 'iron', 'crowbar.', 'He', 'hoped', 'to', 'break', 'into', 'a', 'shop.']",
942,i,"[1, 1, 1, 1, 1, 1, 1, 1, 1, 1, 1, 1, 1, 1, 1, 1, 1, 1, 1, 1, 1, 1]","[759, 627, 567, 676, 571, 545, 768, 829, 772, 436, 697, 592, 524, 489, 853, 915, 829, 1098, 566, 581, 783, 760]","['x-x-x', 'obvious', 'hour', 'guess', 'bill', 'ran', 'info', 'apply', 'sea', 'note', 'starts', 'videos', 'sad', 'luck', 'upon', 'worst', 'holy', 'proves', 'hope', 'goes', 'inflict', 'lakes.']",0.0-10.0-0.1,10,"[1, 0, 1, 0, 1, 0, 1, 1, 0, 0, 1, 0, 0, 0, 1, 1, 1, 1, 0, 0, 1, 0]",,"[759, 627, 567, 676, 571, 545, 768, 829, 772, 436, 697, 592, 524, 489, 853, 915, 829, 1098, 566, 581, 783, 760]",He noticed that there was a shop which had a broken window and a shop which was fitted with a burglar alarm.,,199844,17,maze,2-context,"['He', 'noticed', 'that', 'there', 'was', 'a', 'shop', 'which', 'had', 'a', 'broken', 'window', 'and', 'a', 'shop', 'which', 'was', 'fitted', 'with', 'a', 'burglar', 'alarm.']",
942,i,"[1, 1, 1, 1, 1, 1, 1, 1, 1, 1, 1, 1, 1, 1]","[736, 567, 854, 584, 553, 766, 559, 506, 591, 689, 659, 703, 797, 704]","['x-x-x', 'seen', 'roman', 'okay', 'send', 'plus', 'sure', 'grow', 'till', 'unease', 'non', 'gender', 'mid', 'hour.']",0.0-10.0-0.2,10,"[1, 0, 1, 0, 1, 1, 0, 0, 1, 1, 1, 1, 1, 0]",,"[736, 567, 854, 584, 553, 766, 559, 506, 591, 689, 659, 703, 797, 704]",The man broke into the shop with the iron crowbar but nobody saw him.,,209121,18,maze,VP,"['The', 'man', 'broke', 'into', 'the', 'shop', 'with', 'the', 'iron', 'crowbar', 'but', 'nobody', 'saw', 'him.']",
942,i,,,,0.0-11.0,,,,,,,210132,19,html-button-response,,,
942,i,"[0, 1, 1, 1, 1, 1, 1, 1, 0, 1, 1, 1, 1, 1, 1, 1, 1]","[1628, 724, 1015, 589, 619, 872, 409, 690, 1306, 1072, 697, 1237, 500, 881, 516, 684, 887]","['x-x-x', 'prices', 'purple', 'goal', 'met', 'anymore', 'save', 'missions', 'die', 'refinements.', 'x-x-x', 'gameplay', 'spot', 'bonuses', 'shut', 'users', 'streets.']",0.0-12.0-0.0,23,"[1, 0, 0, 0, 1, 0, 0, 0, 1, 1, 1, 1, 1, 1, 1, 1, 1]",,"[727, 724, 1015, 589, 619, 872, 409, 690, 571, 1072, 697, 1237, 500, 881, 516, 684, 887]",A doctor walked into a waiting room carrying a stethoscope. He’d arranged to examine a woman patient.,,224482,20,maze,setup,"['A', 'doctor', 'walked', 'into', 'a', 'waiting', 'room', 'carrying', 'a', 'stethoscope.', 'He’d', 'arranged', 'to', 'examine', 'a', 'woman', 'patient.']",
942,i,"[1, 1, 1, 1, 1, 1, 1, 1, 1, 1, 1, 1, 1, 1, 1, 1, 1, 0, 1, 0, 1]","[541, 664, 1132, 417, 817, 582, 770, 601, 851, 587, 492, 896, 867, 753, 801, 659, 812, 1460, 870, 1921, 854]","['x-x-x', 'pick', 'noticed', 'gone', 'weird', 'pop', 'took', 'lives', 'our', 'sun', 'band', 'researchers', 'fans', 'why', 'teams', 'self', 'option', 'tour', 'cell', 'android', 'abbot.']",0.0-12.0-0.1,23,"[1, 0, 0, 0, 0, 1, 1, 0, 1, 0, 0, 0, 0, 1, 0, 1, 0, 1, 1, 1, 1]",,"[541, 664, 1132, 417, 817, 582, 770, 601, 851, 587, 492, 896, 867, 753, 801, 659, 812, 585, 870, 1058, 854]",In the waiting room there was a woman who had a temperature and a woman who seemed to have stomach pains.,,241855,21,maze,2-context,"['In', 'the', 'waiting', 'room', 'there', 'was', 'a', 'woman', 'who', 'had', 'a', 'temperature', 'and', 'a', 'woman', 'who', 'seemed', 'to', 'have', 'stomach', 'pains.']",
942,i,"[1, 1, 1, 1, 0, 1, 1, 1, 1, 1, 1, 1]","[573, 688, 1177, 848, 1670, 821, 583, 2272, 645, 782, 1271, 641]","['x-x-x', 'afford', 'feminism', 'ride', 'knows', 'push', 'does', 'enthusiasts', 'easy', 'yourself', 'east', 'sold.']",0.0-12.0-0.2,23,"[0, 1, 1, 1, 1, 1, 0, 0, 1, 0, 0, 1]",,"[573, 688, 1177, 848, 1019, 821, 583, 2272, 645, 782, 1271, 641]",The doctor examined the woman with the temperature but couldn't help her.,,253838,22,maze,NP,"['The', 'doctor', 'examined', 'the', 'woman', 'with', 'the', 'temperature', 'but', ""couldn't"", 'help', 'her.']",
942,i,,,,0.0-13.0,,,,,,,254847,23,html-button-response,,,
942,i,"[1, 1, 1, 1, 1, 1, 1, 1, 1, 1, 1, 1, 1, 1, 1, 1, 1, 1]","[904, 1347, 1024, 926, 492, 785, 741, 556, 1051, 562, 975, 462, 567, 1705, 1035, 1080, 606, 606]","['x-x-x', 'revolts', 'liquids', 'deal', 'cat', 'freemen', 'expenses', 'lose', 'whom.', 'x-x-x', 'feelings', 'bag', 'than', 'says', 'kid', 'imagine', 'mom', 'versa.']",0.0-14.0-0.0,9,"[1, 0, 0, 0, 0, 0, 1, 1, 0, 0, 0, 0, 0, 0, 1, 0, 1, 0]",,"[904, 1347, 1024, 926, 492, 785, 741, 556, 1051, 562, 975, 462, 567, 1705, 1035, 1080, 606, 606]",A workman climbed down a manhole carrying a saw. He expected to have to cut through a valve.,,270280,24,maze,setup,"['A', 'workman', 'climbed', 'down', 'a', 'manhole', 'carrying', 'a', 'saw.', 'He', 'expected', 'to', 'have', 'to', 'cut', 'through', 'a', 'valve.']",
942,i,"[1, 1, 1, 1, 1, 1, 1, 1, 1, 1, 1, 1, 1, 1, 1, 1, 1, 0, 1, 1, 1, 1, 1]","[537, 721, 1967, 579, 1066, 705, 1786, 1237, 693, 711, 660, 548, 1268, 641, 479, 836, 659, 1172, 699, 560, 1054, 741, 974]","['x-x-x', 'wait', 'aspired', 'sure', 'truth', 'lot', 'acids', 'sorry', 'hill', 'page', 'jobs', 'lake', 'cubs', 'list', 'hour', 'god', 'laws', 'ethnic', 'goals', 'male', 'vote', 'rallies', 'sell.']",0.0-14.0-0.1,9,"[0, 1, 1, 0, 0, 0, 0, 1, 0, 1, 0, 1, 1, 1, 1, 1, 1, 0, 0, 1, 0, 1, 1]",,"[537, 721, 1967, 579, 1066, 705, 1786, 1237, 693, 711, 660, 548, 1268, 641, 479, 836, 659, 515, 699, 560, 1054, 741, 974]",Down the manhole he found a valve which had a lot of rust on it and a valve which had been leaking gas.,,290590,25,maze,2-context,"['Down', 'the', 'manhole', 'he', 'found', 'a', 'valve', 'which', 'had', 'a', 'lot', 'of', 'rust', 'on', 'it', 'and', 'a', 'valve', 'which', 'had', 'been', 'leaking', 'gas.']",
942,i,"[1, 1, 0, 1, 1, 1, 1, 1, 1, 1, 1, 1, 1, 1]","[554, 1214, 1817, 571, 496, 691, 597, 801, 649, 952, 831, 589, 603, 573]","['x-x-x', 'denoted', 'sad', 'imagine', 'okay', 'forth', 'poor', 'says', 'pays', 'senate', 'studios', 'buy', 'guys', 'him.']",0.0-14.0-0.2,9,"[0, 1, 1, 0, 0, 1, 1, 1, 0, 0, 0, 0, 1, 0]",,"[554, 1214, 906, 571, 496, 691, 597, 801, 649, 952, 831, 589, 603, 573]",The workman cut through the valve with the rust before fitting a new one.,,301543,26,maze,NP,"['The', 'workman', 'cut', 'through', 'the', 'valve', 'with', 'the', 'rust', 'before', 'fitting', 'a', 'new', 'one.']",
942,i,,,,0.0-15.0,,,,,,,302547,27,html-button-response,,,
942,i,"[1, 1, 1, 1, 1, 1, 1, 1, 1, 1, 1, 1, 1, 1, 1, 1, 1, 1, 1, 1, 1, 1, 1]","[804, 936, 549, 617, 401, 609, 485, 542, 597, 939, 583, 439, 1608, 855, 432, 689, 522, 429, 847, 593, 671, 554, 839]","['x-x-x', 'batters', 'join', 'videos', 'goal', 'types', 'rose', 'died', 'terms', 'male', 'firm', 'size', 'writes', 'suck', 'wind', 'skin', 'thus.', 'x-x-x', 'happen', 'foot', 'upon', 'lie', 'tend.']",0.0-16.0-0.0,25,"[1, 0, 0, 1, 0, 1, 0, 1, 0, 1, 0, 0, 0, 0, 0, 1, 0, 0, 0, 0, 1, 1, 1]",,"[804, 936, 549, 617, 401, 609, 485, 542, 597, 939, 583, 439, 1608, 855, 432, 689, 522, 429, 847, 593, 671, 554, 839]",A burglar was trying to break into a house and had a credit card in his hand. He wanted to open a door.,,318096,28,maze,setup,"['A', 'burglar', 'was', 'trying', 'to', 'break', 'into', 'a', 'house', 'and', 'had', 'a', 'credit', 'card', 'in', 'his', 'hand.', 'He', 'wanted', 'to', 'open', 'a', 'door.']",
942,i,"[1, 1, 1, 1, 1, 1, 1, 1, 1, 1, 1, 1, 1, 1, 1, 1, 1]","[536, 639, 831, 697, 885, 796, 603, 1007, 658, 599, 560, 747, 783, 769, 599, 820, 649]","['x-x-x', 'queen', 'draw', 'onto', 'stars', 'fat', 'dog', 'assert', 'tons', 'poor', 'boys', 'movies', 'weird', 'gay', 'race', 'propose', 'gifts.']",0.0-16.0-0.1,25,"[0, 1, 1, 1, 1, 1, 0, 1, 1, 1, 0, 1, 1, 1, 0, 1, 0]",,"[536, 639, 831, 697, 885, 796, 603, 1007, 658, 599, 560, 747, 783, 769, 599, 820, 649]",He found a door which had a faulty lock and a window which had a cracked frame.,,330282,29,maze,1-context,"['He', 'found', 'a', 'door', 'which', 'had', 'a', 'faulty', 'lock', 'and', 'a', 'window', 'which', 'had', 'a', 'cracked', 'frame.']",
942,i,"[1, 1, 1, 1, 1, 1, 1, 1, 1, 0, 0, 1, 0]","[733, 865, 3431, 569, 708, 1533, 1922, 1098, 1911, 2155, 1696, 1993, 1655]","['x-x-x', 'expands', 'silver', 'drop', 'thus', 'male', 'site', 'relies', 'tend', 'sea', 'affairs', 'honesty', 'degree.']",0.0-16.0-0.2,25,"[1, 1, 0, 0, 1, 1, 0, 1, 1, 1, 1, 0, 1]",,"[733, 865, 3431, 569, 708, 1533, 1922, 1098, 1911, 1153, 796, 1993, 750]",The burglar opened the door with the credit card and quickly slipped inside.,,350574,30,maze,VP,"['The', 'burglar', 'opened', 'the', 'door', 'with', 'the', 'credit', 'card', 'and', 'quickly', 'slipped', 'inside.']",
942,i,,,,0.0-17.0,,,,,,,351579,31,html-button-response,,,
942,i,"[1, 1, 1, 1, 1, 0, 1, 1, 1, 1, 1, 1, 1, 1, 1]","[597, 1075, 740, 1400, 853, 2063, 865, 471, 448, 733, 459, 829, 529, 632, 3513]","['x-x-x', 'raiders', 'ones', 'terminate', 'same', 'rioted', 'abuses.', 'x-x-x', 'guy', 'worry', 'sun', 'loud', 'lie', 'non', 'findings.']",0.0-18.0-0.0,17,"[0, 1, 1, 1, 1, 0, 0, 0, 0, 1, 1, 1, 0, 0, 1]",,"[597, 1075, 740, 1400, 853, 1242, 865, 471, 448, 733, 459, 829, 529, 632, 3513]",A chemist was adjusting a bunsen burner. He was about to heat up a solution.,,366802,32,maze,setup,"['A', 'chemist', 'was', 'adjusting', 'a', 'bunsen', 'burner.', 'He', 'was', 'about', 'to', 'heat', 'up', 'a', 'solution.']",
942,i,"[1, 1, 0, 1, 1, 1, 1, 1, 1, 1, 1, 1, 1, 1, 1, 1, 1, 1, 1]","[561, 741, 2198, 1480, 628, 515, 956, 850, 636, 922, 1347, 528, 650, 572, 530, 792, 1134, 2391, 1320]","['x-x-x', 'ring', 'ought', 'worse', 'cat', 'die', 'diseases', 'lives', 'girl', 'kiss', 'robotics', 'sea', 'hurt', 'gay', 'army', 'granted', 'physicians', 'ride', 'pier.']",0.0-18.0-0.1,17,"[0, 1, 1, 0, 0, 0, 1, 0, 1, 1, 0, 0, 1, 0, 0, 1, 1, 0, 1]",,"[561, 741, 1345, 1480, 628, 515, 956, 850, 636, 922, 1347, 528, 650, 572, 530, 792, 1134, 2391, 1320]",On his bench there was a solution which had blue crystals in it and a solution containing red dye.,,385572,33,maze,2-context,"['On', 'his', 'bench', 'there', 'was', 'a', 'solution', 'which', 'had', 'blue', 'crystals', 'in', 'it', 'and', 'a', 'solution', 'containing', 'red', 'dye.']",
942,i,"[1, 1, 0, 1, 1, 1, 1, 1, 1, 1, 0, 0, 1, 1]","[702, 1401, 2788, 1400, 2531, 593, 440, 828, 915, 586, 2046, 1592, 925, 434]","['x-x-x', 'expands', 'brakes', 'gain', 'becoming', 'fear', 'park', 'haunts', 'weddings', 'fun', 'ride', 'mum', 'nice', 'mark.']",0.0-18.0-0.2,17,"[0, 0, 1, 0, 0, 0, 0, 0, 1, 0, 1, 1, 0, 0]",,"[702, 1401, 2249, 1400, 2531, 593, 440, 828, 915, 586, 1163, 707, 925, 434]",The chemist heated the solution with the bunsen burner but the gas went out.,,402792,34,maze,VP,"['The', 'chemist', 'heated', 'the', 'solution', 'with', 'the', 'bunsen', 'burner', 'but', 'the', 'gas', 'went', 'out.']",
942,i,,,,0.0-19.0,,,,,,,403809,35,html-button-response,,,
942,i,"[1, 1, 1, 1, 1, 1, 1, 1, 1, 1, 1, 1, 1, 1, 1, 1, 1]","[427, 888, 757, 827, 676, 778, 1408, 1310, 707, 893, 838, 480, 852, 756, 1248, 614, 989]","['x-x-x', 'loans', 'text', 'anymore', 'learn', 'cup', 'option', 'funerals', 'list', 'deals', 'relate.', 'x-x-x', 'ford', 'trip', 'traverse', 'yes', 'decide.']",0.0-20.0-0.0,18,"[0, 0, 1, 1, 1, 1, 1, 0, 1, 0, 0, 0, 0, 1, 1, 1, 1]",,"[427, 888, 757, 827, 676, 778, 1408, 1310, 707, 893, 838, 480, 852, 756, 1248, 614, 989]",A drunk was walking along a street wielding an empty bottle. He felt like smashing a window.,,418265,36,maze,setup,"['A', 'drunk', 'was', 'walking', 'along', 'a', 'street', 'wielding', 'an', 'empty', 'bottle.', 'He', 'felt', 'like', 'smashing', 'a', 'window.']",
942,i,"[1, 1, 1, 1, 1, 1, 1, 1, 1, 1, 1, 1, 1, 1, 1, 1, 1, 1, 1, 1]","[523, 718, 468, 595, 633, 926, 822, 976, 2212, 606, 2227, 1929, 567, 718, 909, 636, 1840, 1264, 1255, 615]","['x-x-x', 'shall', 'best', 'done', 'rate', 'wild', 'feel', 'abroad', 'self', 'risk', 'emerged', 'plays', 'list', 'gain', 'decide', 'worst', 'fun', 'yoga', 'province', 'idea.']",0.0-20.0-0.1,18,"[1, 1, 1, 0, 1, 0, 1, 0, 1, 0, 1, 0, 0, 0, 0, 0, 0, 1, 0, 0]",,"[523, 718, 468, 595, 633, 926, 822, 976, 2212, 606, 2227, 1929, 567, 718, 909, 636, 1840, 1264, 1255, 615]",In front of him he saw a window made of stained glass and a window which had bars covering it.,,438705,37,maze,2-context,"['In', 'front', 'of', 'him', 'he', 'saw', 'a', 'window', 'made', 'of', 'stained', 'glass', 'and', 'a', 'window', 'which', 'had', 'bars', 'covering', 'it.']",
942,i,"[1, 1, 1, 1, 1, 1, 0, 0, 0, 1, 1, 1, 0]","[574, 974, 952, 1150, 755, 757, 2585, 2565, 2205, 904, 1520, 1012, 3676]","['x-x-x', 'apart', 'clarify', 'cost', 'indeed', 'sure', 'trip', 'define', 'useful', 'ask', 'linguists', 'rate', 'resource.']",0.0-20.0-0.2,18,"[1, 1, 1, 1, 0, 1, 1, 1, 1, 1, 1, 0, 1]",,"[574, 974, 952, 1150, 755, 757, 1654, 1785, 1683, 904, 1520, 1012, 2408]",The drunk smashed the window with the stained glass and staggered off laughing.,,458373,38,maze,NP,"['The', 'drunk', 'smashed', 'the', 'window', 'with', 'the', 'stained', 'glass', 'and', 'staggered', 'off', 'laughing.']",
942,i,,,,0.0-21.0,,,,,,,459382,39,html-button-response,,,
942,i,"[1, 1, 0, 1, 1, 1, 0, 1, 1, 1, 1, 1, 1, 1, 1, 1, 1, 1, 1]","[1230, 1327, 4079, 735, 456, 728, 2611, 2335, 646, 1080, 493, 500, 1055, 819, 580, 414, 577, 628, 987]","['x-x-x', 'habitats', 'finals', 'god', 'cent', 'soul', 'sir', 'churches', 'yeah', 'expand', 'rarity.', 'x-x-x', 'amazing', 'mess', 'sale', 'app', 'senate', 'pre', 'dams.']",0.0-22.0-0.0,2,"[1, 0, 1, 1, 1, 0, 0, 0, 1, 0, 0, 0, 0, 0, 0, 0, 0, 1, 0]",,"[1230, 1327, 3445, 735, 456, 728, 1475, 2335, 646, 1080, 493, 500, 1055, 819, 580, 414, 577, 628, 987]",A mechanic walked up to a car carrying a monkey wrench. He thought he’d have to change a tyre.,,480698,40,maze,setup,"['A', 'mechanic', 'walked', 'up', 'to', 'a', 'car', 'carrying', 'a', 'monkey', 'wrench.', 'He', 'thought', 'he’d', 'have', 'to', 'change', 'a', 'tyre.']",
942,i,"[1, 1, 0, 1, 1, 1, 1, 1, 1, 1, 1, 1, 1, 0, 1, 1, 1, 1, 1, 1, 1, 1, 1, 1, 1, 1, 0]","[497, 1096, 1137, 638, 714, 645, 721, 715, 535, 579, 735, 500, 1069, 3260, 859, 733, 586, 568, 865, 587, 850, 851, 791, 2882, 749, 587, 2095]","['x-x-x', 'motivated', 'hour', 'whom', 'al', 'queen', 'jack', 'agree', 'glad', 'app', 'airs', 'games', 'pre', 'sir', 'trolls', 'hates', 'hear', 'lord', 'rite', 'holy', 'happy', 'page', 'cent', 'wrote', 'dawn', 'god', 'knew.']",0.0-22.0-0.1,2,"[1, 1, 1, 1, 1, 0, 0, 1, 0, 1, 0, 0, 0, 1, 0, 1, 1, 1, 1, 1, 1, 1, 0, 0, 1, 0, 0]",,"[497, 1096, 530, 638, 714, 645, 721, 715, 535, 579, 735, 500, 1069, 2729, 859, 733, 586, 568, 865, 587, 850, 851, 791, 2882, 749, 587, 468]",On examining the car he found that there was a tyre which had a faulty valve and a fuel line which had a small hole in it.,,506588,41,maze,1-context,"['On', 'examining', 'the', 'car', 'he', 'found', 'that', 'there', 'was', 'a', 'tyre', 'which', 'had', 'a', 'faulty', 'valve', 'and', 'a', 'fuel', 'line', 'which', 'had', 'a', 'small', 'hole', 'in', 'it.']",
942,i,"[1, 0, 1, 1, 1, 1, 1, 1, 1, 1, 1, 1, 1, 1, 1]","[611, 1916, 848, 513, 661, 442, 611, 1147, 880, 760, 832, 1213, 847, 591, 888]","['x-x-x', 'marketed', 'seconds', 'miss', 'oaks', 'sick', 'died', 'preach', 'uphold', 'eat', 'fund', 'hate', 'hall', 'hear', 'born.']",0.0-22.0-0.2,2,"[1, 1, 0, 1, 0, 0, 1, 0, 1, 0, 0, 1, 1, 1, 0]",,"[611, 1027, 848, 513, 661, 442, 611, 1147, 880, 760, 832, 1213, 847, 591, 888]",The mechanic changed the tyre with the monkey wrench but it took a long time.,,519367,42,maze,VP,"['The', 'mechanic', 'changed', 'the', 'tyre', 'with', 'the', 'monkey', 'wrench', 'but', 'it', 'took', 'a', 'long', 'time.']",
942,i,,,,0.0-23.0,,,,,,,520372,43,html-button-response,,,
942,i,"[1, 1, 0, 1, 1, 1, 1, 1, 1, 1, 1, 1, 1, 1, 1, 1]","[519, 954, 1393, 562, 536, 752, 1177, 702, 1301, 553, 766, 507, 743, 1001, 473, 704]","['x-x-x', 'packets', 'marry', 'term', 'grow', 'adds', 'deserves', 'yeah', 'climates.', 'x-x-x', 'painful', 'cent', 'wars', 'glad', 'gift', 'none.']",0.0-24.0-0.0,1,"[1, 1, 0, 0, 1, 1, 0, 1, 0, 1, 0, 1, 1, 0, 0, 0]",,"[519, 954, 681, 562, 536, 752, 1177, 702, 1301, 553, 766, 507, 743, 1001, 473, 704]",A burglar broke into a bank carrying some dynamite. He planned to blow open a safe.,,533033,44,maze,setup,"['A', 'burglar', 'broke', 'into', 'a', 'bank', 'carrying', 'some', 'dynamite.', 'He', 'planned', 'to', 'blow', 'open', 'a', 'safe.']",
942,i,"[1, 1, 1, 1, 1, 1, 1, 1, 1, 1, 1, 1, 1, 1, 1, 1, 1, 1, 1, 1, 1, 1]","[576, 650, 729, 914, 2068, 1092, 1587, 589, 1266, 1061, 616, 586, 1156, 498, 899, 570, 1161, 889, 972, 1656, 810, 992]","['x-x-x', 'senate', 'dad', 'sir', 'fund', 'agree', 'lord', 'vs', 'died', 'tells', 'cent', 'says', 'ago', 'mice', 'sad', 'pro', 'eradicate', 'worst', 'pre', 'oh', 'yeah', 'woke.']",0.0-24.0-0.1,1,"[1, 0, 1, 0, 1, 1, 1, 0, 0, 0, 1, 1, 0, 0, 1, 0, 1, 1, 1, 1, 0, 1]",,"[576, 650, 729, 914, 2068, 1092, 1587, 589, 1266, 1061, 616, 586, 1156, 498, 899, 570, 1161, 889, 972, 1656, 810, 992]",Once inside he saw that there was a safe which had a new lock and a strongbox which had an old lock.,,554382,45,maze,1-context,"['Once', 'inside', 'he', 'saw', 'that', 'there', 'was', 'a', 'safe', 'which', 'had', 'a', 'new', 'lock', 'and', 'a', 'strongbox', 'which', 'had', 'an', 'old', 'lock.']",
942,i,"[1, 1, 1, 1, 1, 1, 1, 1, 1, 1, 1, 1, 1, 1, 1, 1]","[549, 1265, 935, 1595, 441, 802, 1433, 614, 1437, 687, 478, 635, 647, 570, 751, 938]","['x-x-x', 'denoted', 'slim', 'date', 'yeah', 'glad', 'hate', 'app', 'explores', 'earn', 'sir', 'wish', 'ago', 'lord', 'fund', 'alma.']",0.0-24.0-0.2,1,"[0, 1, 1, 0, 0, 1, 0, 0, 0, 0, 0, 1, 0, 0, 0, 0]",,"[549, 1265, 935, 1595, 441, 802, 1433, 614, 1437, 687, 478, 635, 647, 570, 751, 938]",The burglar blew open the safe with the new lock and made off with the loot.,,568166,46,maze,NP,"['The', 'burglar', 'blew', 'open', 'the', 'safe', 'with', 'the', 'new', 'lock', 'and', 'made', 'off', 'with', 'the', 'loot.']",
942,i,,,,0.0-25.0,,,,,,,569170,47,html-button-response,,,
942,i,"[1, 1, 1, 1, 1, 1, 1, 1, 1, 1, 1, 1, 1, 1, 1, 1, 1, 1, 1]","[787, 2713, 620, 1202, 791, 811, 1626, 979, 600, 927, 710, 1370, 530, 563, 806, 622, 1513, 807, 1284]","['x-x-x', 'reactions', 'wind', 'billion', 'ice', 'went', 'causes', 'require', 'came', 'led', 'them', 'grandchild.', 'x-x-x', 'body', 'coast', 'heat', 'brain', 'foot', 'aware.']",0.0-26.0-0.0,31,"[0, 0, 0, 1, 1, 0, 0, 0, 1, 0, 1, 1, 0, 0, 0, 0, 0, 1, 0]",,"[787, 2713, 620, 1202, 791, 811, 1626, 979, 600, 927, 710, 1370, 530, 563, 806, 622, 1513, 807, 1284]",A detective was sitting at a window holding a set of binoculars. He’d been asked to watch a woman.,,588440,48,maze,setup,"['A', 'detective', 'was', 'sitting', 'at', 'a', 'window', 'holding', 'a', 'set', 'of', 'binoculars.', 'He’d', 'been', 'asked', 'to', 'watch', 'a', 'woman.']",
942,i,"[1, 1, 1, 1, 1, 1, 1, 1, 1, 1, 1, 1, 1, 1, 1, 1, 1, 1, 1, 1]","[551, 861, 926, 504, 606, 800, 982, 1876, 755, 495, 586, 785, 595, 895, 699, 1402, 683, 660, 496, 889]","['x-x-x', 'kept', 'gave', 'slow', 'true', 'million', 'park', 'march', 'bus', 'cell', 'apart', 'factors', 'site', 'insiders', 'wind', 'cost', 'costs', 'airport', 'year', 'honours.']",0.0-26.0-0.1,31,"[1, 1, 1, 1, 1, 0, 0, 0, 0, 1, 0, 1, 0, 1, 1, 0, 1, 0, 0, 0]",,"[551, 861, 926, 504, 606, 800, 982, 1876, 755, 495, 586, 785, 595, 895, 699, 1402, 683, 660, 496, 889]",In the room he was looking into there was a woman holding a revolver and a man holding a grenade.,,604496,49,maze,1-context,"['In', 'the', 'room', 'he', 'was', 'looking', 'into', 'there', 'was', 'a', 'woman', 'holding', 'a', 'revolver', 'and', 'a', 'man', 'holding', 'a', 'grenade.']",
942,i,"[1, 1, 1, 1, 1, 1, 1, 1, 1, 1, 0, 1, 1, 1]","[551, 914, 730, 584, 677, 608, 495, 895, 553, 647, 1588, 495, 1315, 621]","['x-x-x', 'preparing', 'poverty', 'heat', 'meant', 'wood', 'year', 'reelection', 'poor', 'firm', 'size', 'cost', 'wants', 'land.']",0.0-26.0-0.2,31,"[1, 1, 0, 1, 1, 0, 0, 1, 1, 0, 0, 0, 1, 1]",,"[551, 914, 730, 584, 677, 608, 495, 895, 553, 647, 894, 495, 1315, 621]",The detective watched the woman with the revolver and then made a phone call.,,615186,50,maze,NP,"['The', 'detective', 'watched', 'the', 'woman', 'with', 'the', 'revolver', 'and', 'then', 'made', 'a', 'phone', 'call.']",
942,i,,,,0.0-27.0,,,,,,,616202,51,html-button-response,,,
942,i,"[1, 1, 1, 1, 1, 1, 0, 1, 1, 1, 1, 1, 1, 1, 1, 1, 1, 1]","[479, 517, 534, 520, 668, 675, 1373, 1147, 1121, 717, 1138, 818, 563, 941, 563, 1721, 545, 2222]","['x-x-x', 'costs', 'heat', 'account', 'message', 'gone', 'colonel', 'march', 'edition', 'need', 'basemen', 'ours.', 'x-x-x', 'stupid', 'kill', 'bureau', 'read', 'pros.']",0.0-28.0-0.0,27,"[0, 0, 1, 0, 0, 0, 0, 1, 0, 1, 0, 1, 0, 1, 0, 0, 0, 0]",,"[479, 517, 534, 520, 668, 675, 711, 1147, 1121, 717, 1138, 818, 563, 941, 563, 1721, 545, 2222]",A woman was looking through some clothes while holding some darning wool. She needed to repair a sock.,,632482,52,maze,setup,"['A', 'woman', 'was', 'looking', 'through', 'some', 'clothes', 'while', 'holding', 'some', 'darning', 'wool.', 'She', 'needed', 'to', 'repair', 'a', 'sock.']",
942,i,"[1, 1, 1, 1, 1, 1, 1, 1, 1, 1, 1, 1, 1, 1, 1, 1, 1, 1, 1, 1, 1, 1, 1, 1]","[446, 671, 812, 560, 1278, 543, 1621, 1405, 830, 637, 632, 556, 748, 618, 855, 933, 569, 1414, 697, 830, 952, 541, 855, 707]","['x-x-x', 'worse', 'unit', 'kill', 'eats', 'pull', 'outcome', 'try', 'tabs', 'basis', 'west', 'camp', 'vary', 'love', 'drug', 'note', 'tax', 'breeds', 'coast', 'tour', 'weekend', 'site', 'via', 'maps.']",0.0-28.0-0.1,27,"[0, 1, 1, 0, 0, 1, 0, 1, 1, 1, 0, 1, 0, 0, 1, 1, 0, 0, 1, 1, 0, 1, 1, 0]",,"[446, 671, 812, 560, 1278, 543, 1621, 1405, 830, 637, 632, 556, 748, 618, 855, 933, 569, 1414, 697, 830, 952, 541, 855, 707]",She found in the pile of clothes a sock which had a hole in it and a jumper which was getting a bit thin.,,652202,53,maze,1-context,"['She', 'found', 'in', 'the', 'pile', 'of', 'clothes', 'a', 'sock', 'which', 'had', 'a', 'hole', 'in', 'it', 'and', 'a', 'jumper', 'which', 'was', 'getting', 'a', 'bit', 'thin.']",
942,i,"[1, 1, 1, 1, 1, 0, 1, 1, 1, 1, 1, 1, 1, 1, 1]","[542, 564, 860, 1356, 1037, 1694, 668, 605, 800, 1180, 729, 1268, 1118, 1140, 802]","['x-x-x', 'apart', 'motorway', 'try', 'vivo', 'easy', 'west', 'amid', 'meet', 'pope', 'tour', 'exists', 'fun', 'ran', 'follows.']",0.0-28.0-0.2,27,"[1, 0, 1, 1, 1, 1, 0, 0, 1, 0, 1, 1, 0, 0, 1]",,"[542, 564, 860, 1356, 1037, 826, 668, 605, 800, 1180, 729, 1268, 1118, 1140, 802]",The woman repaired the sock with the hole but hurt her finger in the process.,,666587,54,maze,NP,"['The', 'woman', 'repaired', 'the', 'sock', 'with', 'the', 'hole', 'but', 'hurt', 'her', 'finger', 'in', 'the', 'process.']",
942,i,,,,0.0-29.0,,,,,,,667601,55,html-button-response,,,
942,i,"[1, 1, 1, 0, 0, 1, 1, 1, 1, 1, 0, 1, 1, 1, 1, 1, 1]","[3609, 1803, 762, 4437, 1849, 595, 1072, 985, 687, 1299, 1029, 548, 2908, 529, 1154, 594, 833]","['x-x-x', 'rumors', 'nice', 'hall', 'courses', 'mark', 'cops', 'worst', 'meet', 'gigs.', 'x-x-x', 'else', 'memories', 'send', 'info', 'gain', 'resign.']",0.0-30.0-0.0,11,"[0, 0, 0, 1, 0, 1, 0, 1, 1, 1, 0, 0, 1, 1, 1, 0, 1]",,"[3609, 1803, 762, 3556, 976, 595, 1072, 985, 687, 1299, 529, 548, 2908, 529, 1154, 594, 833]",A monkey had been trained to eat using a fork. It was supposed to eat a banana.,,692323,56,maze,setup,"['A', 'monkey', 'had', 'been', 'trained', 'to', 'eat', 'using', 'a', 'fork.', 'It', 'was', 'supposed', 'to', 'eat', 'a', 'banana.']",
942,i,"[1, 1, 1, 1, 1, 1, 1, 1, 1, 1, 1, 1, 1, 1, 1, 1, 1]","[768, 619, 1271, 524, 728, 963, 1044, 1085, 1539, 592, 500, 431, 566, 748, 697, 555, 813]","['x-x-x', 'mid', 'worry', 'kid', 'misses', 'goals', 'mind', 'step', 'faking', 'else', 'am', 'vote', 'deal', 'deals', 'risk', 'jobs', 'opinion.']",0.0-30.0-0.1,11,"[1, 0, 1, 0, 1, 0, 1, 0, 0, 0, 0, 0, 1, 1, 1, 0, 0]",,"[768, 619, 1271, 524, 728, 963, 1044, 1085, 1539, 592, 500, 431, 566, 748, 697, 555, 813]",It was given a banana which had a bruise on it and an apple that was perfect.,,705775,57,maze,1-context,"['It', 'was', 'given', 'a', 'banana', 'which', 'had', 'a', 'bruise', 'on', 'it', 'and', 'an', 'apple', 'that', 'was', 'perfect.']",
942,i,"[1, 1, 1, 1, 1, 1, 1, 1, 1, 1, 1, 1]","[547, 674, 617, 596, 576, 505, 540, 676, 582, 622, 861, 871]","['x-x-x', 'deploy', 'ease', 'gain', 'trends', 'risk', 'hall', 'squads', 'jobs', 'rule', 'governance', 'attorney.']",0.0-30.0-0.2,11,"[1, 1, 0, 1, 0, 0, 1, 0, 1, 1, 0, 1]",,"[547, 674, 617, 596, 576, 505, 540, 676, 582, 622, 861, 871]",The monkey ate the banana with the bruise much to everyone’s surprise.,,713452,58,maze,NP,"['The', 'monkey', 'ate', 'the', 'banana', 'with', 'the', 'bruise', 'much', 'to', 'everyone’s', 'surprise.']",
942,i,,,,0.0-31.0,,,,,,,714465,59,html-button-response,,,
942,i,"[1, 1, 1, 1, 1, 1, 1, 1, 1, 1, 1, 1, 1, 1, 1, 1, 1]","[728, 678, 1103, 553, 1451, 727, 925, 862, 571, 1123, 956, 2495, 980, 466, 699, 918, 723]","['x-x-x', 'photos', 'hottest', 'luck', 'defenses', 'know', 'aliens', 'omissions', 'wish', 'elect.', 'x-x-x', 'body', 'coast', 'link', 'cubs', 'ring', 'courts.']",0.0-32.0-0.0,8,"[0, 1, 0, 1, 1, 0, 1, 0, 1, 1, 0, 0, 1, 0, 0, 0, 1]",,"[728, 678, 1103, 553, 1451, 727, 925, 862, 571, 1123, 956, 2495, 980, 466, 699, 918, 723]",A window cleaner was climbing his ladder clutching a cloth. He’d been asked to wipe a window.,,730433,60,maze,setup,"['A', 'window', 'cleaner', 'was', 'climbing', 'his', 'ladder', 'clutching', 'a', 'cloth.', 'He’d', 'been', 'asked', 'to', 'wipe', 'a', 'window.']",
942,i,"[1, 0, 1, 1, 1, 1, 1, 1, 1, 1, 1, 1, 1, 1, 1, 1, 1, 1, 1, 1, 1, 1, 1, 1, 1, 1]","[637, 2020, 580, 1124, 674, 530, 797, 716, 839, 540, 771, 915, 788, 557, 760, 623, 1048, 540, 531, 731, 495, 742, 670, 542, 1107, 555]","['x-x-x', 'fact', 'god', 'termed', 'mind', 'mid', 'week', 'worry', 'page', 'says', 'awards', 'apply', 'mom', 'know', 'else', 'van', 'euro', 'gift', 'sold', 'male', 'pro', 'accords', 'rates', 'cash', 'statistics', 'agree.']",0.0-32.0-0.1,8,"[0, 0, 1, 1, 1, 0, 0, 1, 1, 1, 1, 1, 1, 0, 1, 0, 0, 1, 0, 0, 1, 0, 1, 0, 0, 0]",,"[637, 1098, 580, 1124, 674, 530, 797, 716, 839, 540, 771, 915, 788, 557, 760, 623, 1048, 540, 531, 731, 495, 742, 670, 542, 1107, 555]",Once up the ladder he saw that there was a window which had a lot of dirt on it and a skylight which was relatively clean.,,750287,61,maze,1-context,"['Once', 'up', 'the', 'ladder', 'he', 'saw', 'that', 'there', 'was', 'a', 'window', 'which', 'had', 'a', 'lot', 'of', 'dirt', 'on', 'it', 'and', 'a', 'skylight', 'which', 'was', 'relatively', 'clean.']",
942,i,"[1, 1, 1, 1, 1, 1, 1, 1, 0, 1, 1, 1, 1]","[535, 582, 701, 814, 433, 716, 741, 664, 1943, 1071, 1026, 413, 682]","['x-x-x', 'afford', 'insulin', 'pence', 'gift', 'belong', 'hope', 'wish', 'seeks', 'worry', 'deserve', 'kill', 'percent.']",0.0-32.0-0.2,8,"[1, 0, 1, 0, 0, 1, 0, 1, 1, 1, 0, 0, 0]",,"[535, 582, 701, 814, 433, 716, 741, 664, 1050, 1071, 1026, 413, 682]",The window cleaner wiped the window with the cloth while singing to himself.,,760624,62,maze,VP,"['The', 'window', 'cleaner', 'wiped', 'the', 'window', 'with', 'the', 'cloth', 'while', 'singing', 'to', 'himself.']",
942,i,,,,0.0-33.0,,,,,,,761630,63,html-button-response,,,
942,i,"[1, 1, 1, 1, 1, 1, 1, 1, 1, 1, 1, 1, 1, 1, 0, 1, 1]","[644, 779, 591, 1569, 952, 656, 1419, 834, 599, 1532, 517, 805, 442, 718, 1420, 508, 555]","['x-x-x', 'contexts', 'gold', 'explain', 'pick', 'fans', 'sounds', 'attendees', 'won', 'surnames.', 'x-x-x', 'moment', 'fell', 'cell', 'wife', 'try', 'sake.']",0.0-34.0-0.0,30,"[1, 0, 1, 1, 1, 1, 1, 0, 1, 0, 0, 1, 0, 0, 0, 1, 0]",,"[644, 779, 591, 1569, 952, 656, 1419, 834, 599, 1532, 517, 805, 442, 718, 617, 508, 555]",A gardener was working in a garden adjusting a chainsaw. He needed to cut down a tree.,,776186,64,maze,setup,"['A', 'gardener', 'was', 'working', 'in', 'a', 'garden', 'adjusting', 'a', 'chainsaw.', 'He', 'needed', 'to', 'cut', 'down', 'a', 'tree.']",
942,i,"[1, 1, 1, 1, 1, 1, 1, 1, 1, 1, 1, 1, 0, 1, 1, 1, 1, 1, 1]","[402, 506, 817, 602, 510, 495, 1747, 497, 2091, 851, 477, 537, 1304, 679, 791, 693, 475, 824, 592]","['x-x-x', 'wall', 'networks', 'come', 'felt', 'adds', 'realize', 'need', 'isometry', 'easy', 'us', 'fees', 'aware', 'win', 'race', 'earn', 'pull', 'uses', 'cars.']",0.0-34.0-0.1,30,"[0, 0, 0, 1, 0, 0, 0, 0, 1, 0, 0, 0, 0, 1, 1, 0, 0, 1, 0]",,"[402, 506, 817, 602, 510, 495, 1747, 497, 2091, 851, 477, 537, 765, 679, 791, 693, 475, 824, 592]",He was standing by a tree covered in greenfly and a tree which had been dead a long time.,,791095,65,maze,2-context,"['He', 'was', 'standing', 'by', 'a', 'tree', 'covered', 'in', 'greenfly', 'and', 'a', 'tree', 'which', 'had', 'been', 'dead', 'a', 'long', 'time.']",
942,i,"[1, 1, 1, 1, 1, 1, 1, 1, 1, 1, 1, 1, 1, 1, 1]","[582, 649, 1877, 807, 557, 613, 531, 782, 1885, 607, 1234, 667, 670, 684, 561]","['x-x-x', 'authored', 'gold', 'pick', 'read', 'asks', 'draw', 'role', 'concedes', 'our', 'star', 'news', 'belt', 'click', 'seat.']",0.0-34.0-0.2,30,"[1, 0, 1, 0, 1, 0, 0, 0, 0, 0, 0, 1, 1, 1, 1]",,"[582, 649, 1877, 807, 557, 613, 531, 782, 1885, 607, 1234, 667, 670, 684, 561]",The gardener cut down the tree with the greenfly but was very sad about it.,,803812,66,maze,NP,"['The', 'gardener', 'cut', 'down', 'the', 'tree', 'with', 'the', 'greenfly', 'but', 'was', 'very', 'sad', 'about', 'it.']",
942,i,,,,0.0-35.0,,,,,,,804829,67,html-button-response,,,
942,i,,,,0.0-36.0,,,"{'other': 'none', 'errors': 'no', 'length': 'It felt like a longer task', 'strange': 'none', 'understand': 'yes I understood the instructions', 'what-about': 'Trying to see if I could make a sentence out of the words that were given'}",39650,,,844496,68,survey-text,,,
942,i,,,,0.0-37.0,,,0,2673,,<h2>Many thanks for participating!</h2><p>We are interested in how people integrate the words they read into the context of the sentence so far.<h1>Press continue to be redirected to Prolific. </h1>,847171,69,html-button-response,,,
939,i,,,,0.0-0.0,,,0,203713,," <center><img width=""300px"" src=""assets/stanford.png"" /></center><div id=""legal""></br>By answering the following questions, you are participating in a study being performed by cognitive scientists in the Stanford Department of Psychology. If you have questions about this research, please contact us at  <a href=""mailto://languagecoglab@gmail.com.""> languagecoglab@gmail.com</a>.You must be at least 18 years old to participate. Your participation in this research is voluntary. You may decline to answer any or all of the following questions. You may decline further participation, at any time, without adverse consequences. Your anonymity is assured; the researchers who have requested your participation will not receive any personal information about you. </div></br>",203723,0,html-button-response,,,
939,i,,,,0.0-1.0,,,0,1757,,"<h3>Please read these instructions carefully!</h3> </br><p>For this experiment, please place your <b>left index finger on the 'e' key</b> and your <b>right index finger on the 'i' key</b>.</p><p> You will read sentences word by word. However, you will have to guess which word comes next. On each screen you will see two options: one will be the next word in the sentence, and one will not. </p><p><b>Select the word that continues the sentence by pressing 'e' (left-hand) for the word on the left or pressing 'i' (right-hand) for the word on the right.</b></p><p>Select the best word as quickly as you can, but without making too many errors. </p><div><p>Click ""Continue"" to try this on a practice sentence.</p></div>",205486,1,html-button-response,,,
939,i,"[1, 1, 0, 1, 1, 0, 0, 1, 1, 0, 0, 0, 1, 1]","[6120, 4514, 13120, 1825, 2142, 4562, 1185, 253, 266, 741, 926, 1499, 691, 1195]","['x-x-x', 'whom', 'knew', 'appeared', 'emotions', 'know', 'dad', 'lake', 'edition', 'jack', 'fans', 'fund', 'grow', 'died.']",0.0-2.0,,"[0, 0, 1, 1, 1, 0, 1, 1, 1, 1, 0, 1, 1, 1]",,"[6120, 4514, 10315, 1825, 2142, 1275, 510, 253, 266, 74, 209, 253, 691, 1195]",,,244665,2,maze,,"['This', 'is', 'a', 'practice', 'sentence', 'that', 'you', 'are', 'reading', 'one', 'word', 'at', 'a', 'time.']",
939,i,,,,0.0-3.0,,,0,12528,,"<h3>Please read these instructions carefully!</h3> </br><p>Great job! Now you are ready for the main experiment.</p><p> You will now read 16 short stories in the same word-by-word way.</p><div><p>Click ""Continue"" to start the experiment.</p>",257196,3,html-button-response,,,
939,i,"[1, 0, 1, 1, 1, 0, 0, 0, 0, 1, 1, 1, 1, 1, 0, 0]","[3047, 2783, 1520, 1320, 1444, 2110, 3217, 2467, 2788, 794, 1145, 1084, 1345, 1022, 2649, 2121]","['x-x-x', 'packets', 'marry', 'term', 'grow', 'adds', 'deserves', 'yeah', 'climates.', 'x-x-x', 'painful', 'cent', 'wars', 'glad', 'gift', 'none.']",0.0-4.0-0.0,1,"[0, 1, 0, 0, 0, 0, 1, 0, 1, 0, 1, 0, 1, 1, 1, 0]",,"[3047, 1590, 1520, 1320, 1444, 1139, 2089, 1311, 1856, 794, 1145, 1084, 1345, 1022, 1362, 1102]",A burglar broke into a bank carrying some dynamite. He planned to blow open a safe.,,288075,4,maze,setup,"['A', 'burglar', 'broke', 'into', 'a', 'bank', 'carrying', 'some', 'dynamite.', 'He', 'planned', 'to', 'blow', 'open', 'a', 'safe.']",
939,i,"[1, 1, 1, 0, 0, 0, 1, 1, 0, 1, 0, 1, 0, 0, 0, 1, 1, 0, 0, 1, 1, 1]","[770, 1318, 1198, 4201, 2485, 2050, 968, 859, 2391, 941, 8637, 1028, 1844, 1897, 1487, 561, 742, 1364, 1035, 380, 611, 635]","['x-x-x', 'senate', 'dad', 'sir', 'fund', 'agree', 'lord', 'vs', 'died', 'tells', 'cent', 'says', 'ago', 'mice', 'sad', 'pro', 'eradicate', 'worst', 'pre', 'oh', 'yeah', 'woke.']",0.0-4.0-0.1,1,"[0, 1, 0, 1, 1, 0, 0, 0, 1, 1, 0, 0, 1, 0, 1, 1, 1, 0, 1, 1, 1, 1]",,"[770, 1318, 1198, 1264, 1049, 1130, 968, 859, 845, 941, 1246, 1028, 836, 994, 631, 561, 742, 748, 427, 380, 611, 635]",Once inside he saw that there was a safe which had a new lock and a strongbox which had an old lock.,,325511,5,maze,1-context,"['Once', 'inside', 'he', 'saw', 'that', 'there', 'was', 'a', 'safe', 'which', 'had', 'a', 'new', 'lock', 'and', 'a', 'strongbox', 'which', 'had', 'an', 'old', 'lock.']",
939,i,"[1, 1, 1, 0, 0, 0, 0, 0, 0, 1, 0, 0, 0, 0, 0, 1]","[816, 1111, 736, 2669, 1433, 1431, 1138, 15640, 2548, 822, 2789, 1413, 1078, 629, 2556, 325]","['x-x-x', 'denoted', 'slim', 'date', 'yeah', 'glad', 'hate', 'app', 'explores', 'earn', 'sir', 'wish', 'ago', 'lord', 'fund', 'alma.']",0.0-4.0-0.2,1,"[1, 1, 1, 0, 1, 0, 1, 0, 0, 0, 0, 1, 0, 0, 0, 1]",,"[816, 1111, 736, 1789, 601, 608, 453, 410, 1450, 822, 1924, 865, 433, 63, 122, 325]",The burglar blew open the safe with the new lock and made off with the loot.,,362689,6,maze,NP,"['The', 'burglar', 'blew', 'open', 'the', 'safe', 'with', 'the', 'new', 'lock', 'and', 'made', 'off', 'with', 'the', 'loot.']",
939,i,,,,0.0-5.0,,,,,,,363691,7,html-button-response,,,
939,i,"[1, 1, 1, 1, 1, 1, 1, 1, 1, 1, 0, 1, 1, 1, 1, 1, 1, 1]","[2103, 1050, 775, 937, 741, 881, 1153, 669, 1287, 996, 2704, 829, 666, 1125, 808, 1048, 888, 767]","['x-x-x', 'costs', 'heat', 'account', 'message', 'gone', 'colonel', 'march', 'edition', 'need', 'basemen', 'ours.', 'x-x-x', 'stupid', 'kill', 'bureau', 'read', 'pros.']",0.0-6.0-0.0,27,"[0, 1, 0, 1, 0, 0, 1, 0, 1, 1, 1, 1, 0, 1, 0, 0, 1, 0]",,"[2103, 1050, 775, 937, 741, 881, 1153, 669, 1287, 996, 1807, 829, 666, 1125, 808, 1048, 888, 767]",A woman was looking through some clothes while holding some darning wool. She needed to repair a sock.,,383143,8,maze,setup,"['A', 'woman', 'was', 'looking', 'through', 'some', 'clothes', 'while', 'holding', 'some', 'darning', 'wool.', 'She', 'needed', 'to', 'repair', 'a', 'sock.']",
939,i,"[1, 1, 1, 1, 1, 1, 1, 1, 1, 1, 1, 1, 0, 1, 1, 1, 1, 1, 1, 1, 1, 1, 1, 1]","[752, 990, 1360, 871, 1007, 818, 20607, 1512, 1438, 761, 740, 739, 1777, 577, 668, 728, 790, 955, 895, 17584, 841, 772, 1386, 1017]","['x-x-x', 'worse', 'unit', 'kill', 'eats', 'pull', 'outcome', 'try', 'tabs', 'basis', 'west', 'camp', 'vary', 'love', 'drug', 'note', 'tax', 'breeds', 'coast', 'tour', 'weekend', 'site', 'via', 'maps.']",0.0-6.0-0.1,27,"[1, 1, 0, 0, 1, 0, 1, 0, 1, 1, 0, 1, 1, 0, 1, 1, 1, 1, 1, 0, 0, 1, 1, 0]",,"[752, 990, 1360, 871, 1007, 818, 20607, 1512, 1438, 761, 740, 739, 1036, 577, 668, 728, 790, 955, 895, 17584, 841, 772, 1386, 1017]",She found in the pile of clothes a sock which had a hole in it and a jumper which was getting a bit thin.,,442752,9,maze,1-context,"['She', 'found', 'in', 'the', 'pile', 'of', 'clothes', 'a', 'sock', 'which', 'had', 'a', 'hole', 'in', 'it', 'and', 'a', 'jumper', 'which', 'was', 'getting', 'a', 'bit', 'thin.']",
939,i,"[1, 1, 1, 1, 1, 1, 1, 1, 0, 1, 1, 1, 1, 1, 1]","[661, 697, 1888, 677, 620, 841, 646, 812, 1790, 805, 749, 639, 669, 683, 1193]","['x-x-x', 'apart', 'motorway', 'try', 'vivo', 'easy', 'west', 'amid', 'meet', 'pope', 'tour', 'exists', 'fun', 'ran', 'follows.']",0.0-6.0-0.2,27,"[1, 0, 1, 0, 1, 1, 0, 0, 0, 1, 0, 1, 1, 0, 1]",,"[661, 697, 1888, 677, 620, 841, 646, 812, 746, 805, 749, 639, 669, 683, 1193]",The woman repaired the sock with the hole but hurt her finger in the process.,,456142,10,maze,NP,"['The', 'woman', 'repaired', 'the', 'sock', 'with', 'the', 'hole', 'but', 'hurt', 'her', 'finger', 'in', 'the', 'process.']",
939,i,,,,0.0-7.0,,,,,,,457145,11,html-button-response,,,
943,i,,,,0.0-0.0,,,0,20038,," <center><img width=""300px"" src=""assets/stanford.png"" /></center><div id=""legal""></br>By answering the following questions, you are participating in a study being performed by cognitive scientists in the Stanford Department of Psychology. If you have questions about this research, please contact us at  <a href=""mailto://languagecoglab@gmail.com.""> languagecoglab@gmail.com</a>.You must be at least 18 years old to participate. Your participation in this research is voluntary. You may decline to answer any or all of the following questions. You may decline further participation, at any time, without adverse consequences. Your anonymity is assured; the researchers who have requested your participation will not receive any personal information about you. </div></br>",20039,0,html-button-response,,,
943,i,,,,0.0-1.0,,,0,33518,,"<h3>Please read these instructions carefully!</h3> </br><p>For this experiment, please place your <b>left index finger on the 'e' key</b> and your <b>right index finger on the 'i' key</b>.</p><p> You will read sentences word by word. However, you will have to guess which word comes next. On each screen you will see two options: one will be the next word in the sentence, and one will not. </p><p><b>Select the word that continues the sentence by pressing 'e' (left-hand) for the word on the left or pressing 'i' (right-hand) for the word on the right.</b></p><p>Select the best word as quickly as you can, but without making too many errors. </p><div><p>Click ""Continue"" to try this on a practice sentence.</p></div>",53559,1,html-button-response,,,
943,i,"[1, 1, 1, 0, 1, 0, 0, 1, 1, 1, 1, 1, 1, 1]","[5405, 2710, 1673, 3219, 3240, 3296, 2786, 1863, 1705, 968, 1215, 1241, 1192, 1144]","['x-x-x', 'whom', 'knew', 'appeared', 'emotions', 'know', 'dad', 'lake', 'edition', 'jack', 'fans', 'fund', 'grow', 'died.']",0.0-2.0,,"[1, 0, 1, 1, 0, 0, 1, 0, 0, 1, 0, 0, 1, 0]",,"[5405, 2710, 1673, 1704, 3240, 2416, 2104, 1863, 1705, 968, 1215, 1241, 1192, 1144]",,,85285,2,maze,,"['This', 'is', 'a', 'practice', 'sentence', 'that', 'you', 'are', 'reading', 'one', 'word', 'at', 'a', 'time.']",
943,i,,,,0.0-3.0,,,0,7402,,"<h3>Please read these instructions carefully!</h3> </br><p>Great job! Now you are ready for the main experiment.</p><p> You will now read 16 short stories in the same word-by-word way.</p><div><p>Click ""Continue"" to start the experiment.</p>",92687,3,html-button-response,,,
943,i,"[1, 1, 1, 1, 1, 1, 1, 1, 1, 1, 1, 1, 1, 1, 1, 1, 1]","[2436, 1035, 1919, 1167, 1168, 1239, 777, 1287, 1179, 1758, 1432, 1288, 1377, 1070, 905, 880, 1360]","['x-x-x', 'prices', 'purple', 'goal', 'met', 'anymore', 'save', 'missions', 'die', 'refinements.', 'x-x-x', 'gameplay', 'spot', 'bonuses', 'shut', 'users', 'streets.']",0.0-4.0-0.0,23,"[0, 1, 0, 0, 1, 1, 0, 0, 1, 1, 0, 1, 0, 1, 1, 0, 0]",,"[2436, 1035, 1919, 1167, 1168, 1239, 777, 1287, 1179, 1758, 1432, 1288, 1377, 1070, 905, 880, 1360]",A doctor walked into a waiting room carrying a stethoscope. He’d arranged to examine a woman patient.,,114972,4,maze,setup,"['A', 'doctor', 'walked', 'into', 'a', 'waiting', 'room', 'carrying', 'a', 'stethoscope.', 'He’d', 'arranged', 'to', 'examine', 'a', 'woman', 'patient.']",
943,i,"[1, 1, 1, 1, 1, 1, 1, 1, 1, 1, 1, 1, 1, 1, 1, 1, 1, 1, 1, 1, 1]","[914, 1055, 1824, 650, 1150, 600, 792, 1167, 681, 976, 1096, 1472, 1336, 978, 2566, 1263, 1297, 1208, 960, 1496, 1904]","['x-x-x', 'pick', 'noticed', 'gone', 'weird', 'pop', 'took', 'lives', 'our', 'sun', 'band', 'researchers', 'fans', 'why', 'teams', 'self', 'option', 'tour', 'cell', 'android', 'abbot.']",0.0-4.0-0.1,23,"[1, 1, 0, 0, 1, 0, 0, 0, 0, 1, 1, 0, 0, 1, 1, 1, 0, 1, 1, 1, 1]",,"[914, 1055, 1824, 650, 1150, 600, 792, 1167, 681, 976, 1096, 1472, 1336, 978, 2566, 1263, 1297, 1208, 960, 1496, 1904]",In the waiting room there was a woman who had a temperature and a man who seemed to have stomach pains.,,140364,5,maze,1-context,"['In', 'the', 'waiting', 'room', 'there', 'was', 'a', 'woman', 'who', 'had', 'a', 'temperature', 'and', 'a', 'man', 'who', 'seemed', 'to', 'have', 'stomach', 'pains.']",
943,i,"[1, 1, 1, 1, 1, 1, 1, 1, 1, 1, 1, 1]","[658, 800, 1233, 768, 824, 800, 976, 1112, 896, 1296, 1023, 1433]","['x-x-x', 'afford', 'feminism', 'ride', 'knows', 'push', 'does', 'enthusiasts', 'easy', 'yourself', 'east', 'sold.']",0.0-4.0-0.2,23,"[1, 1, 0, 0, 1, 0, 1, 0, 0, 0, 0, 1]",,"[658, 800, 1233, 768, 824, 800, 976, 1112, 896, 1296, 1023, 1433]",The doctor examined the woman with the temperature but couldn't help her.,,152188,6,maze,NP,"['The', 'doctor', 'examined', 'the', 'woman', 'with', 'the', 'temperature', 'but', ""couldn't"", 'help', 'her.']",
943,i,,,,0.0-5.0,,,,,,,153196,7,html-button-response,,,
943,i,"[1, 1, 1, 1, 1, 1, 1, 1, 1, 1, 1, 1, 1, 1, 1, 1, 1, 1]","[2063, 936, 1008, 1072, 1200, 1408, 1392, 839, 889, 1103, 665, 1032, 625, 558, 800, 930, 1782, 1671]","['x-x-x', 'prices', 'eyes', 'vitamins', 'lack', 'shut', 'updates', 'yes', 'flows', 'tasks.', 'x-x-x', 'stupid', 'cup', 'feet', 'met', 'exists', 'none', 'settle.']",0.0-6.0-0.0,16,"[0, 1, 1, 1, 1, 1, 0, 0, 1, 1, 0, 0, 0, 1, 0, 0, 1, 1]",,"[2063, 936, 1008, 1072, 1200, 1408, 1392, 839, 889, 1103, 665, 1032, 625, 558, 800, 930, 1782, 1671]",A little girl borrowed from the kitchen a bread knife. She wanted to cut an orange into pieces.,,173178,8,maze,setup,"['A', 'little', 'girl', 'borrowed', 'from', 'the', 'kitchen', 'a', 'bread', 'knife.', 'She', 'wanted', 'to', 'cut', 'an', 'orange', 'into', 'pieces.']",
943,i,"[1, 1, 1, 1, 1, 1, 1, 1, 1, 1, 1, 1, 1, 1, 1, 1, 1, 1, 1, 1, 1, 1]","[684, 1160, 1335, 945, 2824, 3344, 856, 1080, 976, 583, 728, 1217, 1418, 3142, 1640, 832, 840, 615, 504, 489, 882, 1207]","['x-x-x', 'worse', 'shut', 'guy', 'hates', 'fate', 'goal', 'senate', 'plans', 'mind', 'job', 'gets', 'argue', 'lire', 'cars', 'wait', 'renovate', 'goals', 'shop', 'plan', 'harm', 'saws.']",0.0-6.0-0.1,16,"[0, 1, 0, 1, 1, 1, 0, 1, 0, 1, 0, 0, 1, 1, 1, 0, 1, 1, 1, 1, 0, 1]",,"[684, 1160, 1335, 945, 2824, 3344, 856, 1080, 976, 583, 728, 1217, 1418, 3142, 1640, 832, 840, 615, 504, 489, 882, 1207]",She found in the fruit bowl an orange which had a very thick rind and an orange which had a thin rind.,,200485,9,maze,2-context,"['She', 'found', 'in', 'the', 'fruit', 'bowl', 'an', 'orange', 'which', 'had', 'a', 'very', 'thick', 'rind', 'and', 'an', 'orange', 'which', 'had', 'a', 'thin', 'rind.']",
943,i,"[1, 1, 1, 1, 1, 1, 1, 1, 1, 1, 1, 1, 1, 1, 0, 1]","[785, 1320, 640, 968, 744, 641, 472, 616, 593, 847, 2144, 1153, 958, 689, 2642, 2200]","['x-x-x', 'enough', 'shut', 'trump', 'hall', 'upon', 'trip', 'expect', 'hope', 'than', 'acres', 'lien', 'self', 'us', 'till', 'follows.']",0.0-6.0-0.2,16,"[1, 1, 0, 0, 0, 0, 1, 0, 1, 0, 0, 1, 1, 0, 0, 1]",,"[785, 1320, 640, 968, 744, 641, 472, 616, 593, 847, 2144, 1153, 958, 689, 1768, 2200]",The little girl tried to cut the orange with the bread knife but to no success.,,217915,10,maze,VP,"['The', 'little', 'girl', 'tried', 'to', 'cut', 'the', 'orange', 'with', 'the', 'bread', 'knife', 'but', 'to', 'no', 'success.']",
943,i,,,,0.0-7.0,,,,,,,218928,11,html-button-response,,,
943,i,"[1, 1, 1, 1, 1, 1, 1, 1, 1, 1, 1, 1, 1, 1, 1, 1]","[12166, 1703, 2023, 784, 1455, 1226, 1959, 1697, 2615, 722, 2335, 832, 656, 2384, 1080, 1810]","['x-x-x', 'reactions', 'misdeeds', 'wild', 'percent', 'did', 'tell', 'eagle', 'diaspora.', 'x-x-x', 'land', 'river', 'link', 'cliff', 'goal', 'centers.']",0.0-8.0-0.0,22,"[1, 1, 0, 0, 0, 1, 1, 0, 1, 1, 0, 1, 1, 1, 0, 1]",,"[12166, 1703, 2023, 784, 1455, 1226, 1959, 1697, 2615, 722, 2335, 832, 656, 2384, 1080, 1810]",A furniture restorer was getting out some paint stripper. He’d been asked to strip a cabinet.,,254381,12,maze,setup,"['A', 'furniture', 'restorer', 'was', 'getting', 'out', 'some', 'paint', 'stripper.', 'He’d', 'been', 'asked', 'to', 'strip', 'a', 'cabinet.']",
943,i,"[1, 1, 1, 1, 1, 1, 1, 1, 1, 0, 1, 1, 1, 1, 1, 1, 1, 1]","[666, 1359, 1608, 857, 582, 600, 1351, 857, 736, 4686, 2048, 1280, 680, 1040, 1432, 912, 1760, 1928]","['x-x-x', 'add', 'demanded', 'worse', 'slow', 'die', 'targets', 'stars', 'baby', 'beast', 'embryo', 'sex', 'why', 'chances', 'wants', 'gay', 'countdown', 'malice.']",0.0-8.0-0.1,22,"[0, 1, 0, 0, 1, 0, 0, 0, 1, 0, 0, 0, 1, 0, 1, 1, 0, 0]",,"[666, 1359, 1608, 857, 582, 600, 1351, 857, 736, 4168, 2048, 1280, 680, 1040, 1432, 912, 1760, 1928]",In his workshop there was a cabinet which had brass hinges and a cabinet which had aluminium hinges.,,278773,13,maze,2-context,"['In', 'his', 'workshop', 'there', 'was', 'a', 'cabinet', 'which', 'had', 'brass', 'hinges', 'and', 'a', 'cabinet', 'which', 'had', 'aluminium', 'hinges.']",
943,i,"[1, 1, 1, 1, 1, 1, 1, 1, 1, 1, 1, 1, 1]","[649, 1040, 1384, 592, 832, 960, 584, 2128, 2153, 1239, 1751, 2041, 1272]","['x-x-x', 'downwind', 'tolerant', 'own', 'reached', 'tour', 'gets', 'grows', 'infancy', 'pain', 'here', 'nouns', 'meet.']",0.0-8.0-0.2,22,"[1, 1, 1, 1, 0, 1, 1, 1, 0, 0, 0, 1, 1]",,"[649, 1040, 1384, 592, 832, 960, 584, 2128, 2153, 1239, 1751, 2041, 1272]",The restorer stripped the cabinet with the brass hinges and then waxed it.,,295402,14,maze,NP,"['The', 'restorer', 'stripped', 'the', 'cabinet', 'with', 'the', 'brass', 'hinges', 'and', 'then', 'waxed', 'it.']",
943,i,,,,0.0-9.0,,,,,,,296411,15,html-button-response,,,
943,i,"[1, 1, 1, 1, 1, 1, 1, 1, 1, 1, 1, 1, 1, 1, 1, 1, 1, 1, 1, 1, 1, 1, 1, 1, 1]","[1927, 1840, 944, 839, 865, 808, 776, 471, 1865, 944, 832, 984, 704, 1376, 984, 480, 1328, 1225, 967, 1344, 1440, 871, 977, 1000, 1016]","['x-x-x', 'capacities', 'cool', 'gold', 'text', 'sun', 'each', 'fat', 'does', 'feel', 'rate', 'overthrew.', 'x-x-x', 'move', 'ring', 'park', 'east', 'link', 'met', 'substances', 'reached', 'feet', 'starship', 'wear', 'calls.']",0.0-10.0-0.0,21,"[1, 0, 1, 1, 1, 1, 0, 1, 1, 1, 0, 0, 0, 0, 0, 0, 1, 1, 0, 0, 1, 0, 0, 0, 1]",,"[1927, 1840, 944, 839, 865, 808, 776, 471, 1865, 944, 832, 984, 704, 1376, 984, 480, 1328, 1225, 967, 1344, 1440, 871, 977, 1000, 1016]",A demolition man was on his way to work in his bulldozer. He’d been told to go to a particular address to demolish a house.,,323226,16,maze,setup,"['A', 'demolition', 'man', 'was', 'on', 'his', 'way', 'to', 'work', 'in', 'his', 'bulldozer.', 'He’d', 'been', 'told', 'to', 'go', 'to', 'a', 'particular', 'address', 'to', 'demolish', 'a', 'house.']",
943,i,"[1, 1, 1, 1, 1, 1, 0, 1, 1, 1, 1, 1, 1, 1, 1, 1, 1, 1, 1, 1, 1, 1, 1]","[731, 1528, 616, 1039, 728, 1217, 2167, 927, 857, 952, 1056, 1216, 1576, 928, 896, 1080, 864, 1032, 1343, 1448, 673, 1975, 1640]","['x-x-x', 'bed', 'uses', 'follows', 'wear', 'brown', 'walk', 'comes', 'super', 'push', 'step', 'comets', 'deployed', 'me', 'goes', 'anyway', 'pain', 'fear', 'except', 'trouble', 'data', 'ford', 'encoding.']",0.0-10.0-0.1,21,"[0, 1, 0, 1, 0, 1, 1, 0, 0, 1, 1, 1, 1, 1, 0, 1, 0, 0, 0, 0, 1, 1, 0]",,"[731, 1528, 616, 1039, 728, 1217, 832, 927, 857, 952, 1056, 1216, 1576, 928, 896, 1080, 864, 1032, 1343, 1448, 673, 1975, 1640]",Once at the address he found a house which had an ornate fountain in its garden and a house covered in fine carvings.,,349719,17,maze,2-context,"['Once', 'at', 'the', 'address', 'he', 'found', 'a', 'house', 'which', 'had', 'an', 'ornate', 'fountain', 'in', 'its', 'garden', 'and', 'a', 'house', 'covered', 'in', 'fine', 'carvings.']",
943,i,"[1, 1, 1, 1, 1, 1, 1, 1, 1, 1, 1, 1, 1, 1]","[702, 632, 1032, 808, 560, 704, 776, 1096, 800, 944, 1088, 776, 984, 1720]","['x-x-x', 'yet', 'insulation', 'draw', 'maybe', 'pick', 'via', 'marathons', 'gay', 'deal', 'annual', 'fat', 'heard', 'our.']",0.0-10.0-0.2,21,"[0, 1, 1, 1, 1, 0, 0, 1, 0, 0, 0, 1, 1, 0]",,"[702, 632, 1032, 808, 560, 704, 776, 1096, 800, 944, 1088, 776, 984, 1720]",The man demolished the house with the fountain but it wasn't the right one.,,362348,18,maze,NP,"['The', 'man', 'demolished', 'the', 'house', 'with', 'the', 'fountain', 'but', 'it', ""wasn't"", 'the', 'right', 'one.']",
943,i,,,,0.0-11.0,,,,,,,363362,19,html-button-response,,,
