workerid,proliferate.condition,correct,cumrt,distractors,failed_audio,failed_images,failed_video,internal_node_id,order,response,rt,stimulus,success,time_elapsed,timeout,trial_index,trial_type,words,error
1060,test,,,,[],[],[],0.0-0.0,,,,,True,256,False,0,preload,,
1060,test,,,,,,,0.0-1.0,,0,35900,"<h2> Thanks for helping us out by testing out our experiment!<h2><br><h3>Please read these instructions carefully!</h3> </br><p>For this experiment, please place your <b>left index finger on the 'e' key</b> and your <b>right index finger on the 'i' key</b>.</p><p> You will read sentences word by word. However, you will have to guess which word comes next.</p> <p>On each screen you will see <b>two</b> options: one will be the next word in the sentence, and one will not. </p><p><b>Select the word that continues the sentence by pressing 'e' (left-hand) for the word on the left <br>orpressing 'i' (right-hand) for the word on the right.</b></p><p>Select the best word as quickly as you can, but without making too many errors. </p><div><p>Click ""Continue"" to try this on a practice sentence.</p></div>",,36157,,1,html-button-response,,
1060,test,"[1, 1, 1, 1, 1, 1, 1, 1]","[8813, 1347, 1069, 656, 980, 1491, 720, 1038]","['x-x-x', 'no', 'lake', 'grow', 'appeal', 'died', 'sun', 'runs.']",,,,0.0-2.0,"[0, 0, 1, 0, 0, 0, 0, 1]",,"[8813, 1347, 1069, 656, 980, 1491, 720, 1038]",,,52285,,2,maze,"['The', 'dog', 'chased', 'the', 'squirrel', 'up', 'a', 'tree.']",
1060,test,,,,,,,0.0-3.0,,0,5156,"<p>Great job! Now you are ready for the main experiment.</p><p> You will now read a paragraph in the same word-by-word way.</p><div><p>Click ""Continue"" to start the experiment.</p>",,57443,,3,html-button-response,,
1060,test,"[1, 1, 1, 1, 1, 1, 1, 1, 1, 1, 1]","[1226, 1423, 1793, 820, 697, 976, 959, 531, 742, 920, 790]","['x-x-x', 'relies', 'mailed', 'glad', 'am', 'barns', 'carry', 'case', 'door', 'hope', 'award.']",,,,0.0-4.0-0.0,"[1, 1, 1, 0, 1, 0, 0, 1, 1, 0, 0]",,"[1226, 1423, 1793, 820, 697, 976, 959, 531, 742, 920, 790]",,,68323,,4,maze,"['The', 'arctic', 'tundra', 'is', 'a', 'biome', 'found', 'in', 'the', 'far', 'north.']",
1060,test,,,,,,,0.0-4.0-1.0,, ,11007,"<img  style=""width: 800px;"" src=assets/images/1.jpeg> <br><br><p>Press spacebar to continue.</p>",,79334,,5,html-keyboard-response,,
1060,test,"[1, 1, 1, 1, 1, 1, 1, 1, 1, 1, 1, 1, 1, 1]","[2138, 840, 906, 7772, 1749, 578, 1282, 639, 1648, 872, 701, 1322, 966, 936]","['x-x-x', 'lose', 'eluded,', 'info', 'missed', 'pre', 'pamphlet', 'art', 'mom', 'photographer', 'girl', 'judge', 'imagine', 'witness.']",,,,0.0-4.0-0.1,"[0, 1, 0, 1, 1, 1, 0, 0, 1, 0, 1, 1, 1, 1]",,"[2138, 840, 906, 7772, 1749, 578, 1282, 639, 1648, 872, 701, 1322, 966, 936]",,,101691,,6,maze,"['In', 'the', 'tundra,', 'tree', 'growth', 'is', 'hindered', 'by', 'low', 'temperatures', 'and', 'short', 'growing', 'seasons.']",
1060,test,,,,,,,0.0-4.0-1.1,, ,1937,"<img  style=""width: 800px;"" src=assets/images/2.jpeg> <br><br><p>Press spacebar to continue.</p>",,103630,,7,html-keyboard-response,,
1060,test,"[1, 1, 1, 1, 1, 1, 1, 1, 1, 1, 1, 1, 1, 1, 1, 1, 1, 1, 1, 1, 1, 1, 1, 1, 1]","[916, 787, 729, 968, 734, 827, 652, 868, 721, 940, 1132, 1029, 583, 2067, 1624, 714, 1094, 1730, 894, 610, 1268, 980, 657, 884, 826]","['x-x-x', 'fact', 'box', 'meant', 'sir', 'admire', 'try', 'ask', 'aunt', 'learn', 'figuring', 'honor', 'wife', 'appears', 'glad', 'badge,', 'fun', 'intro', 'cared', 'text', 'soul', 'robin', 'says', 'opinion', 'photo.']",,,,0.0-4.0-0.2,"[1, 1, 1, 1, 0, 0, 1, 1, 1, 1, 0, 0, 1, 1, 0, 0, 0, 0, 0, 0, 1, 1, 0, 0, 0]",,"[916, 787, 729, 968, 734, 827, 652, 868, 721, 940, 1132, 1029, 583, 2067, 1624, 714, 1094, 1730, 894, 610, 1268, 980, 657, 884, 826]",,,127872,,8,maze,"['Most', 'of', 'the', 'water', 'is', 'frozen', 'in', 'the', 'soil', 'which', 'prevents', 'trees', 'from', 'putting', 'down', 'roots,', 'and', 'harsh', 'winds', 'also', 'keep', 'trees', 'from', 'growing', 'large.']",
1060,test,,,,,,,0.0-4.0-1.2,, ,10673,"<img  style=""width: 800px;"" src=assets/images/3.jpeg> <br><br><p>Press spacebar to continue.</p>",,138547,,9,html-keyboard-response,,
1060,test,"[1, 1, 1, 1, 1, 1, 1, 1, 1, 1, 1]","[788, 1777, 1011, 1079, 1071, 796, 1173, 981, 736, 660, 865]","['x-x-x', 'excuse', 'yeah', 'equinox,', 'fewest,', 'far', 'fenders', 'trip', 'ride', 'guys', 'wrench.']",,,,0.0-4.0-0.3,"[0, 1, 1, 0, 1, 1, 1, 1, 1, 1, 0]",,"[788, 1777, 1011, 1079, 1071, 796, 1173, 981, 736, 660, 865]",,,149490,,10,maze,"['Instead,', 'plants', 'like', 'grasses,', 'mosses,', 'and', 'lichens', 'grow', 'in', 'the', 'tundra.']",
1060,test,,,,,,,0.0-4.0-1.3,, ,2247,"<img  style=""width: 800px;"" src=assets/images/4.jpeg> <br><br><p>Press spacebar to continue.</p>",,151739,,11,html-keyboard-response,,
1060,test,"[1, 1, 1, 1, 1, 1, 1, 1, 1, 1, 1, 1, 1, 1, 1, 1, 1, 1, 1]","[723, 1263, 1041, 862, 836, 885, 823, 870, 738, 710, 1193, 1330, 2248, 661, 847, 753, 1231, 725, 637]","['x-x-x', 'else', 'eat', 'jobs', 'hire', 'guess', 'cent', 'wife', 'sir', 'keypad', 'professor,', 'dad', 'vote', 'card', 'hall', 'amendment', 'herself', 'lady', 'focus.']",,,,0.0-4.0-0.4,"[1, 0, 1, 1, 1, 1, 0, 0, 0, 0, 0, 0, 0, 0, 0, 0, 1, 1, 0]",,"[723, 1263, 1041, 862, 836, 885, 823, 870, 738, 710, 1193, 1330, 2248, 661, 847, 753, 1231, 725, 637]",,,170120,,12,maze,"['The', 'deep', 'and', 'cold', 'snow', 'makes', 'life', 'in', 'the', 'tundra', 'difficult,', 'so', 'not', 'very', 'many', 'different', 'animals', 'live', 'there.']",
1060,test,,,,,,,0.0-4.0-1.4,, ,1197,"<img  style=""width: 800px;"" src=assets/images/5.jpeg> <br><br><p>Press spacebar to continue.</p>",,171318,,13,html-keyboard-response,,
1060,test,"[1, 1, 1, 1, 1, 1, 1, 1, 1, 1, 1, 1]","[633, 849, 765, 609, 1451, 999, 683, 997, 737, 718, 1215, 1091]","['x-x-x', 'watched', 'cent', 'pre', 'lady', 'commentator', 'mom', 'embassy', 'hall', 'ask', 'sided', 'actress.']",,,,0.0-4.0-0.5,"[1, 0, 0, 0, 1, 0, 0, 0, 0, 1, 0, 1]",,"[633, 849, 765, 609, 1451, 999, 683, 997, 737, 718, 1215, 1091]",,,182067,,14,maze,"['The', 'animals', 'that', 'do', 'have', 'adaptations', 'to', 'survive', 'in', 'the', 'harsh', 'climate.']",
1060,test,,,,,,,0.0-4.0-1.5,, ,4083,"<img  style=""width: 800px;"" src=assets/images/6.jpeg> <br><br><p>Press spacebar to continue.</p>",,186151,,15,html-keyboard-response,,
1060,test,"[1, 1, 1, 1, 1, 1, 1, 1, 1, 1, 1, 1, 1, 1, 1, 1, 1, 1]","[945, 827, 922, 1140, 752, 618, 611, 959, 574, 736, 723, 667, 920, 717, 1310, 770, 1006, 873]","['x-x-x', 'tapped', 'sec', 'taxes', 'edit', 'miss', 'yeah', 'argue', 'til', 'fate', 'click', 'mortgage', 'dad', 'says', 'classrooms', 'sad', 'bet', 'gladly.']",,,,0.0-4.0-0.6,"[0, 0, 1, 1, 0, 1, 0, 1, 0, 1, 0, 0, 1, 0, 0, 1, 0, 1]",,"[945, 827, 922, 1140, 752, 618, 611, 959, 574, 736, 723, 667, 920, 717, 1310, 770, 1006, 873]",,,201225,,16,maze,"['The', 'arctic', 'fox', 'keeps', 'warm', 'with', 'a', 'thick', 'fur', 'coat', 'which', 'provides', 'the', 'best', 'insulation', 'of', 'any', 'mammal.']",
1060,test,,,,,,,0.0-4.0-1.6,, ,1319,"<img  style=""width: 800px;"" src=assets/images/7.jpeg> <br><br><p>Press spacebar to continue.</p>",,202545,,17,html-keyboard-response,,
1060,test,"[1, 1, 1, 1, 1, 1, 1, 1, 1, 1, 1, 1, 1, 1, 1, 1, 1, 1, 1, 1]","[706, 1235, 918, 520, 882, 622, 619, 1106, 671, 615, 620, 664, 674, 679, 937, 629, 1092, 941, 950, 1029]","['x-x-x', 'unto', 'imagine', 'lucky', 'know', 'costs', 'tour', 'seem', 'expect', 'fear', 'trust', 'hate', 'sure', 'thinks', 'buy', 'casts', 'ran', 'anti', 'knew', 'deny.']",,,,0.0-4.0-0.7,"[0, 1, 0, 0, 0, 0, 0, 1, 1, 0, 1, 1, 1, 0, 0, 0, 0, 0, 0, 1]",,"[706, 1235, 918, 520, 882, 622, 619, 1106, 671, 615, 620, 664, 674, 679, 937, 629, 1092, 941, 950, 1029]",,,218661,,18,maze,"['Its', 'coat', 'changes', 'color', 'from', 'brown', 'in', 'the', 'summer', 'to', 'white', 'in', 'the', 'winter', 'to', 'blend', 'in', 'with', 'the', 'snow.']",
1060,test,,,,,,,0.0-4.0-1.7,, ,2784,"<img  style=""width: 800px;"" src=assets/images/8.jpeg> <br><br><p>Press spacebar to continue.</p>",,221447,,19,html-keyboard-response,,
1060,test,"[1, 1, 1, 1, 1, 1, 1, 1, 1, 1, 1, 1, 1, 1, 1, 1, 1, 1]","[635, 758, 1042, 677, 802, 661, 911, 721, 1138, 471, 1343, 925, 617, 498, 1255, 1168, 865, 815]","['x-x-x', 'behave', 'ago', 'okay', 'bank', 'agree', 'goal', 'trip', 'died', 'prices', 'sell', 'doubt', 'hurt', 'hear', 'option,', 'guy', 'dealership', 'accept.']",,,,0.0-4.0-0.8,"[1, 1, 0, 0, 1, 0, 0, 1, 1, 0, 1, 1, 1, 0, 1, 1, 0, 1]",,"[635, 758, 1042, 677, 802, 661, 911, 721, 1138, 471, 1343, 925, 617, 498, 1255, 1168, 865, 815]",,,236754,,20,maze,"['The', 'arctic', 'hare', 'also', 'has', 'brown', 'hair', 'in', 'the', 'summer', 'and', 'white', 'hair', 'in', 'winter,', 'to', 'camouflage', 'itself.']",
1060,test,,,,,,,0.0-4.0-1.8,, ,1245,"<img  style=""width: 800px;"" src=assets/images/9.jpeg> <br><br><p>Press spacebar to continue.</p>",,238002,,21,html-keyboard-response,,
1060,test,"[1, 1, 1, 1, 1, 1, 1, 1, 1, 1, 1, 1, 1, 1, 1, 1, 1]","[749, 841, 833, 882, 941, 853, 952, 1000, 694, 702, 1104, 586, 697, 1185, 662, 1056, 1121]","['x-x-x', 'hours', 'math', 'ought', 'okay', 'hate', 'expect', 'yes', 'thank', 'ago', 'drew', 'sir', 'lady', 'tale', 'says', 'laws', 'agent.']",,,,0.0-4.0-0.9,"[1, 1, 0, 1, 0, 0, 1, 1, 0, 0, 0, 1, 0, 1, 0, 1, 1]",,"[749, 841, 833, 882, 941, 853, 952, 1000, 694, 702, 1104, 586, 697, 1185, 662, 1056, 1121]",,,252864,,22,maze,"['They', 'often', 'dig', 'holes', 'in', 'the', 'ground', 'or', 'under', 'the', 'snow', 'to', 'keep', 'warm', 'and', 'to', 'sleep.']",
1060,test,,,,,,,0.0-4.0-1.9,, ,1097,"<img  style=""width: 800px;"" src=assets/images/10.jpeg> <br><br><p>Press spacebar to continue.</p>",,253962,,23,html-keyboard-response,,
1060,test,"[1, 1, 1, 1, 1, 1, 1, 1, 1, 1, 1]","[642, 839, 714, 584, 822, 745, 990, 875, 674, 690, 1200]","['x-x-x', 'barges', 'sorcery', 'sad', 'guys', 'lawsuits,', 'door', 'doubt', 'come', 'nor', 'decried.']",,,,0.0-4.0-0.10,"[0, 1, 0, 1, 1, 0, 1, 0, 1, 0, 0]",,"[642, 839, 714, 584, 822, 745, 990, 875, 674, 690, 1200]",,,262742,,24,maze,"['Another', 'tundra', 'dweller', 'is', 'the', 'reindeer,', 'also', 'known', 'as', 'the', 'caribou.']",
1060,test,,,,,,,0.0-4.0-1.10,, ,3316,"<img  style=""width: 800px;"" src=assets/images/11.jpeg> <br><br><p>Press spacebar to continue.</p>",,266059,,25,html-keyboard-response,,
1060,test,"[1, 1, 1, 1, 1, 1, 1, 1, 1, 1, 1, 1, 1, 1, 1, 1, 1, 1, 1, 1]","[579, 1077, 888, 589, 792, 1131, 1001, 815, 640, 852, 876, 784, 1239, 1560, 1414, 647, 1148, 994, 516, 874]","['x-x-x', 'guess', 'drove', 'mid', 'rang,', 'page', 'dean', 'week', 'indeed', 'pamphlet', 'hour', 'abscess,', 'miss,', 'goal', 'award', 'lied,', 'fund', 'text', 'push', 'drags.']",,,,0.0-4.0-0.11,"[0, 1, 1, 0, 1, 0, 1, 1, 0, 0, 0, 0, 1, 0, 1, 0, 1, 1, 0, 1]",,"[579, 1077, 888, 589, 792, 1131, 1001, 815, 640, 852, 876, 784, 1239, 1560, 1414, 647, 1148, 994, 516, 874]",,,284480,,26,maze,"['Unlike', 'other', 'types', 'of', 'deer,', 'both', 'male', 'and', 'female', 'reindeer', 'have', 'antlers,', 'but,', 'like', 'other', 'deer,', 'they', 'live', 'in', 'herds.']",
1060,test,,,,,,,0.0-4.0-1.11,, ,1758,"<img  style=""width: 800px;"" src=assets/images/12.jpeg> <br><br><p>Press spacebar to continue.</p>",,286240,,27,html-keyboard-response,,
1060,test,"[1, 1, 1, 1, 1, 1, 1, 1, 1, 1, 1, 1, 1, 1, 1, 1, 1, 1]","[724, 1109, 647, 859, 906, 498, 1157, 1058, 1113, 579, 863, 1080, 1341, 640, 845, 905, 706, 1096]","['x-x-x', 'jeopardize', 'knew', 'voiced', 'send', 'summed', 'agent,', 'sideline', 'tinge', 'cowboys', 'son', 'soul', 'anime', 'dared', 'bad', 'boyfriend', 'page', 'trouble.']",,,,0.0-4.0-0.12,"[1, 0, 1, 0, 1, 0, 1, 0, 1, 0, 1, 0, 0, 0, 0, 1, 1, 1]",,"[724, 1109, 647, 859, 906, 498, 1157, 1058, 1113, 579, 863, 1080, 1341, 640, 845, 905, 706, 1096]",,,302368,,28,maze,"['During', 'migrations', 'from', 'warmer', 'to', 'cooler', 'areas,', 'reindeer', 'herds', 'combine', 'to', 'form', 'giant', 'herds', 'of', 'thousands', 'of', 'animals.']",
1060,test,,,,,,,0.0-4.0-1.12,, ,1726,"<img  style=""width: 800px;"" src=assets/images/13.jpeg> <br><br><p>Press spacebar to continue.</p>",,304096,,29,html-keyboard-response,,
1060,test,"[1, 1, 1, 1, 1, 1, 1, 1, 1, 1, 1, 1, 1, 1, 1, 1, 1, 1]","[784, 909, 1609, 877, 648, 675, 774, 846, 880, 1105, 789, 1356, 519, 1221, 557, 957, 1370, 1377]","['x-x-x', 'nice', 'proclamation', 'worry', 'arrested', 'sorry', 'luck', 'call', 'card', 'knows', 'gift', 'hear', 'join', 'lets', 'idiom', 'plan', 'yes', 'pays.']",,,,0.0-4.0-0.13,"[1, 1, 0, 1, 0, 0, 1, 1, 0, 1, 0, 0, 0, 1, 0, 0, 1, 0]",,"[784, 909, 1609, 877, 648, 675, 774, 846, 880, 1105, 789, 1356, 519, 1221, 557, 957, 1370, 1377]",,,321353,,30,maze,"['Reindeer', 'were', 'domesticated', 'three', 'thousand', 'years', 'ago', 'and', 'have', 'since', 'been', 'used', 'to', 'pull', 'sleds', 'and', 'for', 'milk.']",
1060,test,,,,,,,0.0-4.0-1.13,, ,2111,"<img  style=""width: 800px;"" src=assets/images/14.jpeg> <br><br><p>Press spacebar to continue.</p>",,323465,,31,html-keyboard-response,,
1060,test,"[1, 1, 1, 1, 1, 1, 1, 1, 1, 1]","[818, 611, 861, 670, 574, 937, 596, 866, 611, 932]","['x-x-x', 'luck', 'ago', 'wait', 'sank', 'dollars', 'jobs', 'sick', 'gift', 'frustrations.']",,,,0.0-4.0-0.14,"[1, 0, 0, 0, 0, 1, 0, 0, 0, 1]",,"[818, 611, 861, 670, 574, 937, 596, 866, 611, 932]",,,330947,,32,maze,"['They', 'are', 'the', 'only', 'deer', 'species', 'that', 'has', 'been', 'domesticated.']",
1060,test,,,,,,,0.0-4.0-1.14,, ,5276,"<img  style=""width: 800px;"" src=assets/images/15.jpeg> <br><br><p>Press spacebar to continue.</p>",,336227,,33,html-keyboard-response,,
1060,test,,,,,,,0.0-5.0,,"{'age': '11', 'other': '', 'errors': 'No', 'length': 'Fun', 'understand': 'The instructions were clear, and the experiment was overall very clear.'}",96447,,,432680,,34,survey-text,,
1060,test,,,,,,,0.0-6.0,,0,10338,<h2>Many thanks for participating!</h2><p>We are trying to see whether this way of reading sentences word by word <br> can be used to measure the language processing in younger people.</p><p>The text was adapted from Wikipedia articles and the images were from Wikipedia and Wikimedia Commons.</p><h1>Press continue to finish. </h1>,,443019,,35,html-button-response,,
1055,test,,,,[],[],[],0.0-0.0,,,,,True,441,False,0,preload,,
1055,test,,,,,,,0.0-1.0,,0,23260,"<h2> Thanks for helping us out by testing out our experiment!<h2><br><h3>Please read these instructions carefully!</h3> </br><p>For this experiment, please place your <b>left index finger on the 'e' key</b> and your <b>right index finger on the 'i' key</b>.</p><p> You will read sentences word by word. However, you will have to guess which word comes next.</p> <p>On each screen you will see <b>two</b> options: one will be the next word in the sentence, and one will not. </p><p><b>Select the word that continues the sentence by pressing 'e' (left-hand) for the word on the left <br>orpressing 'i' (right-hand) for the word on the right.</b></p><p>Select the best word as quickly as you can, but without making too many errors. </p><div><p>Click ""Continue"" to try this on a practice sentence.</p></div>",,23702,,1,html-button-response,,
1055,test,"[1, 1, 1, 1, 1, 1, 1, 1]","[8631, 4496, 1290, 1491, 1096, 1172, 836, 1002]","['x-x-x', 'no', 'lake', 'grow', 'appeal', 'died', 'sun', 'runs.']",,,,0.0-2.0,"[1, 1, 0, 0, 0, 0, 1, 1]",,"[8631, 4496, 1290, 1491, 1096, 1172, 836, 1002]",,,43732,,2,maze,"['The', 'dog', 'chased', 'the', 'squirrel', 'up', 'a', 'tree.']",
1055,test,,,,,,,0.0-3.0,,0,7363,"<p>Great job! Now you are ready for the main experiment.</p><p> You will now read a paragraph in the same word-by-word way.</p><div><p>Click ""Continue"" to start the experiment.</p>",,51095,,3,html-button-response,,
1055,test,"[1, 1, 1, 1, 1, 1, 1, 1, 1, 1, 1]","[1078, 1211, 943, 1040, 957, 1046, 1268, 901, 920, 892, 763]","['x-x-x', 'relies', 'mailed', 'glad', 'am', 'barns', 'carry', 'case', 'door', 'hope', 'award.']",,,,0.0-4.0-0.0,"[1, 0, 1, 1, 0, 0, 1, 1, 1, 0, 0]",,"[1078, 1211, 943, 1040, 957, 1046, 1268, 901, 920, 892, 763]",,,62115,,4,maze,"['The', 'arctic', 'tundra', 'is', 'a', 'biome', 'found', 'in', 'the', 'far', 'north.']",
1055,test,,,,,,,0.0-4.0-1.0,, ,2220,"<img  style=""width: 800px;"" src=assets/images/1.jpeg> <br><br><p>Press spacebar to continue.</p>",,64336,,5,html-keyboard-response,,
1055,test,"[1, 1, 1, 1, 1, 1, 1, 1, 1, 1, 1, 1, 1, 1]","[762, 1032, 828, 1917, 1157, 718, 914, 846, 933, 1128, 1156, 824, 860, 733]","['x-x-x', 'lose', 'eluded,', 'info', 'missed', 'pre', 'pamphlet', 'art', 'mom', 'photographer', 'girl', 'judge', 'imagine', 'witness.']",,,,0.0-4.0-0.1,"[1, 1, 0, 0, 1, 1, 0, 0, 0, 1, 1, 0, 1, 1]",,"[762, 1032, 828, 1917, 1157, 718, 914, 846, 933, 1128, 1156, 824, 860, 733]",,,78146,,6,maze,"['In', 'the', 'tundra,', 'tree', 'growth', 'is', 'hindered', 'by', 'low', 'temperatures', 'and', 'short', 'growing', 'seasons.']",
1055,test,,,,,,,0.0-4.0-1.1,, ,1592,"<img  style=""width: 800px;"" src=assets/images/2.jpeg> <br><br><p>Press spacebar to continue.</p>",,79739,,7,html-keyboard-response,,
1055,test,"[1, 1, 1, 1, 1, 1, 1, 1, 1, 1, 1, 1, 1, 1, 1, 1, 1, 1, 1, 1, 1, 1, 1, 1, 1]","[682, 669, 984, 1197, 657, 918, 1334, 652, 1031, 1387, 1225, 815, 745, 1286, 851, 769, 1109, 2121, 960, 1191, 1176, 1124, 1110, 1026, 2047]","['x-x-x', 'fact', 'box', 'meant', 'sir', 'admire', 'try', 'ask', 'aunt', 'learn', 'figuring', 'honor', 'wife', 'appears', 'glad', 'badge,', 'fun', 'intro', 'cared', 'text', 'soul', 'robin', 'says', 'opinion', 'photo.']",,,,0.0-4.0-0.2,"[1, 0, 1, 1, 0, 0, 1, 1, 1, 0, 1, 0, 0, 0, 1, 0, 0, 0, 0, 1, 1, 1, 0, 0, 1]",,"[682, 669, 984, 1197, 657, 918, 1334, 652, 1031, 1387, 1225, 815, 745, 1286, 851, 769, 1109, 2121, 960, 1191, 1176, 1124, 1110, 1026, 2047]",,,106814,,8,maze,"['Most', 'of', 'the', 'water', 'is', 'frozen', 'in', 'the', 'soil', 'which', 'prevents', 'trees', 'from', 'putting', 'down', 'roots,', 'and', 'harsh', 'winds', 'also', 'keep', 'trees', 'from', 'growing', 'large.']",
1055,test,,,,,,,0.0-4.0-1.2,, ,2382,"<img  style=""width: 800px;"" src=assets/images/3.jpeg> <br><br><p>Press spacebar to continue.</p>",,109198,,9,html-keyboard-response,,
1055,test,"[1, 1, 1, 1, 1, 1, 1, 1, 1, 1, 1]","[770, 1149, 757, 1558, 1262, 1542, 1313, 821, 677, 856, 958]","['x-x-x', 'excuse', 'yeah', 'equinox,', 'fewest,', 'far', 'fenders', 'trip', 'ride', 'guys', 'wrench.']",,,,0.0-4.0-0.3,"[0, 1, 0, 1, 1, 1, 1, 0, 1, 1, 0]",,"[770, 1149, 757, 1558, 1262, 1542, 1313, 821, 677, 856, 958]",,,120870,,10,maze,"['Instead,', 'plants', 'like', 'grasses,', 'mosses,', 'and', 'lichens', 'grow', 'in', 'the', 'tundra.']",
1055,test,,,,,,,0.0-4.0-1.3,, ,1505,"<img  style=""width: 800px;"" src=assets/images/4.jpeg> <br><br><p>Press spacebar to continue.</p>",,122377,,11,html-keyboard-response,,
1055,test,"[1, 1, 1, 1, 1, 1, 1, 1, 1, 1, 1, 1, 0, 1, 1, 1, 1, 1, 1]","[662, 1216, 1253, 978, 993, 1153, 1318, 822, 673, 694, 1016, 793, 4905, 930, 705, 1165, 1567, 735, 1085]","['x-x-x', 'else', 'eat', 'jobs', 'hire', 'guess', 'cent', 'wife', 'sir', 'keypad', 'professor,', 'dad', 'vote', 'card', 'hall', 'amendment', 'herself', 'lady', 'focus.']",,,,0.0-4.0-0.4,"[1, 1, 1, 1, 0, 0, 1, 1, 1, 0, 1, 0, 0, 1, 1, 1, 1, 1, 0]",,"[662, 1216, 1253, 978, 993, 1153, 1318, 822, 673, 694, 1016, 793, 3656, 930, 705, 1165, 1567, 735, 1085]",,,145054,,12,maze,"['The', 'deep', 'and', 'cold', 'snow', 'makes', 'life', 'in', 'the', 'tundra', 'difficult,', 'so', 'not', 'very', 'many', 'different', 'animals', 'live', 'there.']",
1055,test,,,,,,,0.0-4.0-1.4,, ,2160,"<img  style=""width: 800px;"" src=assets/images/5.jpeg> <br><br><p>Press spacebar to continue.</p>",,147215,,13,html-keyboard-response,,
1055,test,"[1, 1, 1, 1, 1, 1, 1, 1, 1, 1, 1, 1]","[645, 691, 837, 801, 893, 1534, 1072, 857, 614, 647, 610, 682]","['x-x-x', 'watched', 'cent', 'pre', 'lady', 'commentator', 'mom', 'embassy', 'hall', 'ask', 'sided', 'actress.']",,,,0.0-4.0-0.5,"[0, 0, 1, 1, 0, 0, 1, 0, 1, 1, 0, 1]",,"[645, 691, 837, 801, 893, 1534, 1072, 857, 614, 647, 610, 682]",,,157105,,14,maze,"['The', 'animals', 'that', 'do', 'have', 'adaptations', 'to', 'survive', 'in', 'the', 'harsh', 'climate.']",
1055,test,,,,,,,0.0-4.0-1.5,, ,1205,"<img  style=""width: 800px;"" src=assets/images/6.jpeg> <br><br><p>Press spacebar to continue.</p>",,158312,,15,html-keyboard-response,,
1055,test,"[1, 1, 1, 1, 1, 1, 1, 1, 1, 1, 1, 1, 1, 1, 1, 1, 1, 1]","[638, 988, 1498, 996, 972, 1016, 908, 999, 810, 1046, 969, 843, 768, 1099, 1076, 1718, 938, 1040]","['x-x-x', 'tapped', 'sec', 'taxes', 'edit', 'miss', 'yeah', 'argue', 'til', 'fate', 'click', 'mortgage', 'dad', 'says', 'classrooms', 'sad', 'bet', 'gladly.']",,,,0.0-4.0-0.6,"[0, 1, 1, 1, 1, 1, 1, 1, 1, 0, 0, 0, 0, 0, 1, 0, 1, 1]",,"[638, 988, 1498, 996, 972, 1016, 908, 999, 810, 1046, 969, 843, 768, 1099, 1076, 1718, 938, 1040]",,,176648,,16,maze,"['The', 'arctic', 'fox', 'keeps', 'warm', 'with', 'a', 'thick', 'fur', 'coat', 'which', 'provides', 'the', 'best', 'insulation', 'of', 'any', 'mammal.']",
1055,test,,,,,,,0.0-4.0-1.6,, ,1488,"<img  style=""width: 800px;"" src=assets/images/7.jpeg> <br><br><p>Press spacebar to continue.</p>",,178138,,17,html-keyboard-response,,
1055,test,"[1, 1, 1, 1, 1, 1, 1, 0, 1, 1, 1, 1, 1, 1, 1, 1, 1, 1, 1, 1]","[937, 874, 1233, 948, 995, 1023, 2031, 1556, 715, 1053, 1041, 1128, 555, 585, 994, 1310, 626, 845, 1008, 855]","['x-x-x', 'unto', 'imagine', 'lucky', 'know', 'costs', 'tour', 'seem', 'expect', 'fear', 'trust', 'hate', 'sure', 'thinks', 'buy', 'casts', 'ran', 'anti', 'knew', 'deny.']",,,,0.0-4.0-0.7,"[1, 1, 0, 1, 0, 1, 1, 0, 1, 1, 1, 1, 0, 0, 0, 0, 0, 1, 0, 1]",,"[937, 874, 1233, 948, 995, 1023, 2031, 815, 715, 1053, 1041, 1128, 555, 585, 994, 1310, 626, 845, 1008, 855]",,,198464,,18,maze,"['Its', 'coat', 'changes', 'color', 'from', 'brown', 'in', 'the', 'summer', 'to', 'white', 'in', 'the', 'winter', 'to', 'blend', 'in', 'with', 'the', 'snow.']",
1055,test,,,,,,,0.0-4.0-1.7,, ,2276,"<img  style=""width: 800px;"" src=assets/images/8.jpeg> <br><br><p>Press spacebar to continue.</p>",,200741,,19,html-keyboard-response,,
1055,test,"[1, 1, 1, 1, 1, 1, 1, 1, 1, 1, 1, 1, 1, 1, 1, 1, 1, 1]","[730, 871, 791, 939, 736, 805, 777, 729, 739, 605, 706, 715, 768, 602, 959, 837, 947, 1331]","['x-x-x', 'behave', 'ago', 'okay', 'bank', 'agree', 'goal', 'trip', 'died', 'prices', 'sell', 'doubt', 'hurt', 'hear', 'option,', 'guy', 'dealership', 'accept.']",,,,0.0-4.0-0.8,"[0, 1, 0, 0, 1, 0, 1, 1, 0, 0, 1, 0, 0, 1, 1, 0, 0, 1]",,"[730, 871, 791, 939, 736, 805, 777, 729, 739, 605, 706, 715, 768, 602, 959, 837, 947, 1331]",,,215339,,20,maze,"['The', 'arctic', 'hare', 'also', 'has', 'brown', 'hair', 'in', 'the', 'summer', 'and', 'white', 'hair', 'in', 'winter,', 'to', 'camouflage', 'itself.']",
1055,test,,,,,,,0.0-4.0-1.8,, ,1606,"<img  style=""width: 800px;"" src=assets/images/9.jpeg> <br><br><p>Press spacebar to continue.</p>",,216946,,21,html-keyboard-response,,
1055,test,"[1, 1, 1, 1, 1, 1, 1, 1, 1, 1, 1, 1, 1, 1, 1, 1, 1]","[665, 918, 1148, 729, 695, 777, 755, 907, 1156, 869, 561, 828, 722, 709, 1175, 1318, 1502]","['x-x-x', 'hours', 'math', 'ought', 'okay', 'hate', 'expect', 'yes', 'thank', 'ago', 'drew', 'sir', 'lady', 'tale', 'says', 'laws', 'agent.']",,,,0.0-4.0-0.9,"[0, 1, 1, 1, 1, 0, 0, 1, 1, 0, 1, 0, 0, 1, 1, 1, 0]",,"[665, 918, 1148, 729, 695, 777, 755, 907, 1156, 869, 561, 828, 722, 709, 1175, 1318, 1502]",,,232392,,22,maze,"['They', 'often', 'dig', 'holes', 'in', 'the', 'ground', 'or', 'under', 'the', 'snow', 'to', 'keep', 'warm', 'and', 'to', 'sleep.']",
1055,test,,,,,,,0.0-4.0-1.9,, ,1262,"<img  style=""width: 800px;"" src=assets/images/10.jpeg> <br><br><p>Press spacebar to continue.</p>",,233655,,23,html-keyboard-response,,
1055,test,"[1, 1, 1, 1, 1, 1, 1, 1, 1, 1, 1]","[746, 728, 833, 597, 618, 1125, 2092, 819, 637, 639, 987]","['x-x-x', 'barges', 'sorcery', 'sad', 'guys', 'lawsuits,', 'door', 'doubt', 'come', 'nor', 'decried.']",,,,0.0-4.0-0.10,"[1, 0, 1, 0, 0, 0, 1, 0, 1, 0, 1]",,"[746, 728, 833, 597, 618, 1125, 2092, 819, 637, 639, 987]",,,243485,,24,maze,"['Another', 'tundra', 'dweller', 'is', 'the', 'reindeer,', 'also', 'known', 'as', 'the', 'caribou.']",
1055,test,,,,,,,0.0-4.0-1.10,, ,1397,"<img  style=""width: 800px;"" src=assets/images/11.jpeg> <br><br><p>Press spacebar to continue.</p>",,244883,,25,html-keyboard-response,,
1055,test,"[1, 1, 1, 1, 1, 1, 1, 1, 1, 1, 1, 1, 1, 1, 1, 1, 1, 1, 1, 1]","[879, 1309, 1318, 925, 771, 1408, 786, 713, 453, 876, 880, 852, 1376, 1418, 845, 950, 989, 815, 831, 1247]","['x-x-x', 'guess', 'drove', 'mid', 'rang,', 'page', 'dean', 'week', 'indeed', 'pamphlet', 'hour', 'abscess,', 'miss,', 'goal', 'award', 'lied,', 'fund', 'text', 'push', 'drags.']",,,,0.0-4.0-0.11,"[1, 1, 1, 0, 1, 1, 0, 0, 0, 0, 1, 1, 0, 1, 0, 1, 1, 0, 0, 0]",,"[879, 1309, 1318, 925, 771, 1408, 786, 713, 453, 876, 880, 852, 1376, 1418, 845, 950, 989, 815, 831, 1247]",,,264536,,26,maze,"['Unlike', 'other', 'types', 'of', 'deer,', 'both', 'male', 'and', 'female', 'reindeer', 'have', 'antlers,', 'but,', 'like', 'other', 'deer,', 'they', 'live', 'in', 'herds.']",
1055,test,,,,,,,0.0-4.0-1.11,, ,1939,"<img  style=""width: 800px;"" src=assets/images/12.jpeg> <br><br><p>Press spacebar to continue.</p>",,266477,,27,html-keyboard-response,,
1055,test,"[1, 1, 1, 1, 1, 1, 1, 1, 1, 1, 1, 1, 1, 1, 1, 1, 1, 1]","[771, 900, 1115, 833, 797, 629, 995, 838, 937, 1117, 836, 1031, 973, 867, 1069, 842, 831, 774]","['x-x-x', 'jeopardize', 'knew', 'voiced', 'send', 'summed', 'agent,', 'sideline', 'tinge', 'cowboys', 'son', 'soul', 'anime', 'dared', 'bad', 'boyfriend', 'page', 'trouble.']",,,,0.0-4.0-0.12,"[0, 1, 1, 0, 0, 0, 1, 1, 0, 1, 0, 1, 0, 1, 0, 0, 1, 1]",,"[771, 900, 1115, 833, 797, 629, 995, 838, 937, 1117, 836, 1031, 973, 867, 1069, 842, 831, 774]",,,282640,,28,maze,"['During', 'migrations', 'from', 'warmer', 'to', 'cooler', 'areas,', 'reindeer', 'herds', 'combine', 'to', 'form', 'giant', 'herds', 'of', 'thousands', 'of', 'animals.']",
1055,test,,,,,,,0.0-4.0-1.12,, ,1190,"<img  style=""width: 800px;"" src=assets/images/13.jpeg> <br><br><p>Press spacebar to continue.</p>",,283832,,29,html-keyboard-response,,
1055,test,"[1, 1, 1, 1, 1, 1, 1, 1, 1, 1, 1, 1, 1, 1, 1, 1, 1, 1]","[760, 844, 906, 1126, 848, 747, 654, 779, 898, 980, 1587, 889, 1172, 974, 793, 786, 1492, 1407]","['x-x-x', 'nice', 'proclamation', 'worry', 'arrested', 'sorry', 'luck', 'call', 'card', 'knows', 'gift', 'hear', 'join', 'lets', 'idiom', 'plan', 'yes', 'pays.']",,,,0.0-4.0-0.13,"[0, 0, 1, 1, 0, 1, 1, 0, 0, 0, 0, 1, 1, 1, 1, 1, 1, 1]",,"[760, 844, 906, 1126, 848, 747, 654, 779, 898, 980, 1587, 889, 1172, 974, 793, 786, 1492, 1407]",,,301485,,30,maze,"['Reindeer', 'were', 'domesticated', 'three', 'thousand', 'years', 'ago', 'and', 'have', 'since', 'been', 'used', 'to', 'pull', 'sleds', 'and', 'for', 'milk.']",
1055,test,,,,,,,0.0-4.0-1.13,, ,2177,"<img  style=""width: 800px;"" src=assets/images/14.jpeg> <br><br><p>Press spacebar to continue.</p>",,303663,,31,html-keyboard-response,,
1055,test,"[1, 1, 1, 1, 1, 1, 1, 1, 1, 1]","[765, 639, 790, 1031, 751, 1044, 1022, 864, 903, 995]","['x-x-x', 'luck', 'ago', 'wait', 'sank', 'dollars', 'jobs', 'sick', 'gift', 'frustrations.']",,,,0.0-4.0-0.14,"[0, 0, 0, 1, 0, 0, 1, 1, 1, 0]",,"[765, 639, 790, 1031, 751, 1044, 1022, 864, 903, 995]",,,312477,,32,maze,"['They', 'are', 'the', 'only', 'deer', 'species', 'that', 'has', 'been', 'domesticated.']",
1055,test,,,,,,,0.0-4.0-1.14,, ,1477,"<img  style=""width: 800px;"" src=assets/images/15.jpeg> <br><br><p>Press spacebar to continue.</p>",,313955,,33,html-keyboard-response,,
1055,test,,,,,,,0.0-5.0,,"{'age': '48', 'other': '', 'errors': 'Seemed ok.', 'length': 'Fun. Only once was I actually unsure of the next word... others were typos from going too fast. ', 'understand': ""typo on the first page... there was a space missing between two letters. Also, you say to go fast but try not to make mistakes... so you imply a goal of speeding, but it's unclear if we are supposed to use the pictures as a chance to rest and reset our engines or if we should be trying to move quickly through the whole thing including the images. ""}",175842,,,489808,,34,survey-text,,
1055,test,,,,,,,0.0-6.0,,0,12196,<h2>Many thanks for participating!</h2><p>We are trying to see whether this way of reading sentences word by word <br> can be used to measure the language processing in younger people.</p><p>The text was adapted from Wikipedia articles and the images were from Wikipedia and Wikimedia Commons.</p><h1>Press continue to finish. </h1>,,502009,,35,html-button-response,,
1050,test,,,,[],[],[],0.0-0.0,,,,,True,98,False,0,preload,,
1050,test,,,,,,,0.0-1.0,,0,2399,"<h2> Thanks for helping us out by testing out our experiment!<h2><br><h3>Please read these instructions carefully!</h3> </br><p>For this experiment, please place your <b>left index finger on the 'e' key</b> and your <b>right index finger on the 'i' key</b>.</p><p> You will read sentences word by word. However, you will have to guess which word comes next.</p> <p>On each screen you will see <b>two</b> options: one will be the next word in the sentence, and one will not. </p><p><b>Select the word that continues the sentence by pressing 'e' (left-hand) for the word on the left <br>orpressing 'i' (right-hand) for the word on the right.</b></p><p>Select the best word as quickly as you can, but without making too many errors. </p><div><p>Click ""Continue"" to try this on a practice sentence.</p></div>",,2498,,1,html-button-response,,
1050,test,"[1, 1, 1, 1, 1, 1, 1, 1]","[4687, 957, 660, 450, 497, 587, 537, 603]","['x-x-x', 'no', 'lake', 'grow', 'appeal', 'died', 'sun', 'runs.']",,,,0.0-2.0,"[1, 1, 0, 0, 0, 1, 0, 1]",,"[4687, 957, 660, 450, 497, 587, 537, 603]",,,11487,,2,maze,"['The', 'dog', 'chased', 'the', 'squirrel', 'up', 'a', 'tree.']",
1050,test,,,,,,,0.0-3.0,,0,3133,"<p>Great job! Now you are ready for the main experiment.</p><p> You will now read a paragraph in the same word-by-word way.</p><div><p>Click ""Continue"" to start the experiment.</p>",,14621,,3,html-button-response,,
1050,test,"[1, 1, 1, 1, 1, 1, 1, 1, 1, 0, 1]","[1237, 657, 576, 559, 552, 710, 754, 520, 520, 1487, 512]","['x-x-x', 'relies', 'mailed', 'glad', 'am', 'barns', 'carry', 'case', 'door', 'hope', 'award.']",,,,0.0-4.0-0.0,"[1, 0, 0, 1, 0, 0, 1, 0, 0, 0, 0]",,"[1237, 657, 576, 559, 552, 710, 754, 520, 520, 608, 512]",,,22714,,4,maze,"['The', 'arctic', 'tundra', 'is', 'a', 'biome', 'found', 'in', 'the', 'far', 'north.']",
1050,test,,,,,,,0.0-4.0-1.0,, ,766,"<img  style=""width: 800px;"" src=assets/images/1.jpeg> <br><br><p>Press spacebar to continue.</p>",,23481,,5,html-keyboard-response,,
1050,test,"[1, 1, 1, 0, 1, 1, 1, 1, 1, 1, 1, 1, 1, 1]","[588, 512, 543, 1655, 583, 481, 688, 752, 744, 1057, 599, 639, 537, 727]","['x-x-x', 'lose', 'eluded,', 'info', 'missed', 'pre', 'pamphlet', 'art', 'mom', 'photographer', 'girl', 'judge', 'imagine', 'witness.']",,,,0.0-4.0-0.1,"[0, 0, 0, 0, 0, 0, 0, 1, 1, 1, 1, 0, 1, 1]",,"[588, 512, 543, 745, 583, 481, 688, 752, 744, 1057, 599, 639, 537, 727]",,,33593,,6,maze,"['In', 'the', 'tundra,', 'tree', 'growth', 'is', 'hindered', 'by', 'low', 'temperatures', 'and', 'short', 'growing', 'seasons.']",
1050,test,,,,,,,0.0-4.0-1.1,, ,743,"<img  style=""width: 800px;"" src=assets/images/2.jpeg> <br><br><p>Press spacebar to continue.</p>",,34337,,7,html-keyboard-response,,
1050,test,"[1, 1, 1, 1, 1, 1, 1, 1, 1, 1, 1, 1, 1, 1, 1, 1, 1, 1, 1, 1, 1, 1, 1, 1, 1]","[573, 668, 720, 1072, 728, 736, 528, 608, 976, 564, 744, 664, 671, 625, 582, 530, 593, 631, 592, 552, 608, 672, 504, 575, 656]","['x-x-x', 'fact', 'box', 'meant', 'sir', 'admire', 'try', 'ask', 'aunt', 'learn', 'figuring', 'honor', 'wife', 'appears', 'glad', 'badge,', 'fun', 'intro', 'cared', 'text', 'soul', 'robin', 'says', 'opinion', 'photo.']",,,,0.0-4.0-0.2,"[0, 1, 0, 0, 1, 1, 0, 1, 1, 0, 1, 1, 1, 0, 1, 0, 1, 0, 1, 0, 0, 1, 0, 0, 0]",,"[573, 668, 720, 1072, 728, 736, 528, 608, 976, 564, 744, 664, 671, 625, 582, 530, 593, 631, 592, 552, 608, 672, 504, 575, 656]",,,50713,,8,maze,"['Most', 'of', 'the', 'water', 'is', 'frozen', 'in', 'the', 'soil', 'which', 'prevents', 'trees', 'from', 'putting', 'down', 'roots,', 'and', 'harsh', 'winds', 'also', 'keep', 'trees', 'from', 'growing', 'large.']",
1050,test,,,,,,,0.0-4.0-1.2,, ,591,"<img  style=""width: 800px;"" src=assets/images/3.jpeg> <br><br><p>Press spacebar to continue.</p>",,51306,,9,html-keyboard-response,,
1050,test,"[1, 1, 1, 1, 1, 1, 1, 1, 1, 1, 1]","[525, 792, 648, 734, 714, 584, 632, 551, 482, 622, 553]","['x-x-x', 'excuse', 'yeah', 'equinox,', 'fewest,', 'far', 'fenders', 'trip', 'ride', 'guys', 'wrench.']",,,,0.0-4.0-0.3,"[0, 1, 0, 1, 1, 1, 0, 0, 0, 1, 0]",,"[525, 792, 648, 734, 714, 584, 632, 551, 482, 622, 553]",,,58146,,10,maze,"['Instead,', 'plants', 'like', 'grasses,', 'mosses,', 'and', 'lichens', 'grow', 'in', 'the', 'tundra.']",
1050,test,,,,,,,0.0-4.0-1.3,, ,652,"<img  style=""width: 800px;"" src=assets/images/4.jpeg> <br><br><p>Press spacebar to continue.</p>",,58799,,11,html-keyboard-response,,
1050,test,"[1, 1, 1, 1, 1, 1, 1, 1, 1, 1, 1, 1, 1, 1, 1, 0, 1, 1, 1]","[495, 944, 664, 559, 527, 789, 765, 528, 468, 695, 512, 569, 503, 713, 654, 1494, 776, 591, 601]","['x-x-x', 'else', 'eat', 'jobs', 'hire', 'guess', 'cent', 'wife', 'sir', 'keypad', 'professor,', 'dad', 'vote', 'card', 'hall', 'amendment', 'herself', 'lady', 'focus.']",,,,0.0-4.0-0.4,"[0, 1, 0, 0, 0, 1, 0, 0, 0, 1, 0, 1, 0, 1, 1, 1, 1, 0, 1]",,"[495, 944, 664, 559, 527, 789, 765, 528, 468, 695, 512, 569, 503, 713, 654, 649, 776, 591, 601]",,,71653,,12,maze,"['The', 'deep', 'and', 'cold', 'snow', 'makes', 'life', 'in', 'the', 'tundra', 'difficult,', 'so', 'not', 'very', 'many', 'different', 'animals', 'live', 'there.']",
1050,test,,,,,,,0.0-4.0-1.4,, ,646,"<img  style=""width: 800px;"" src=assets/images/5.jpeg> <br><br><p>Press spacebar to continue.</p>",,72302,,13,html-keyboard-response,,
1050,test,"[1, 1, 1, 1, 1, 1, 1, 1, 1, 1, 1, 1]","[502, 726, 617, 536, 704, 807, 641, 672, 640, 654, 1618, 1247]","['x-x-x', 'watched', 'cent', 'pre', 'lady', 'commentator', 'mom', 'embassy', 'hall', 'ask', 'sided', 'actress.']",,,,0.0-4.0-0.5,"[0, 1, 0, 0, 1, 1, 1, 0, 1, 1, 1, 1]",,"[502, 726, 617, 536, 704, 807, 641, 672, 640, 654, 1618, 1247]",,,81669,,14,maze,"['The', 'animals', 'that', 'do', 'have', 'adaptations', 'to', 'survive', 'in', 'the', 'harsh', 'climate.']",
1050,test,,,,,,,0.0-4.0-1.5,, ,1582,"<img  style=""width: 800px;"" src=assets/images/6.jpeg> <br><br><p>Press spacebar to continue.</p>",,83253,,15,html-keyboard-response,,
1050,test,"[0, 1, 1, 1, 1, 1, 1, 1, 1, 1, 1, 1, 1, 1, 1, 1, 1, 1]","[1859, 768, 999, 569, 1160, 623, 497, 524, 568, 651, 801, 715, 529, 632, 768, 702, 514, 583]","['x-x-x', 'tapped', 'sec', 'taxes', 'edit', 'miss', 'yeah', 'argue', 'til', 'fate', 'click', 'mortgage', 'dad', 'says', 'classrooms', 'sad', 'bet', 'gladly.']",,,,0.0-4.0-0.6,"[1, 0, 0, 0, 1, 0, 0, 0, 0, 1, 0, 1, 0, 1, 1, 1, 0, 0]",,"[836, 768, 999, 569, 1160, 623, 497, 524, 568, 651, 801, 715, 529, 632, 768, 702, 514, 583]",,,96722,,16,maze,"['The', 'arctic', 'fox', 'keeps', 'warm', 'with', 'a', 'thick', 'fur', 'coat', 'which', 'provides', 'the', 'best', 'insulation', 'of', 'any', 'mammal.']",
1050,test,,,,,,,0.0-4.0-1.6,, ,646,"<img  style=""width: 800px;"" src=assets/images/7.jpeg> <br><br><p>Press spacebar to continue.</p>",,97368,,17,html-keyboard-response,,
1050,test,"[1, 1, 1, 1, 1, 1, 1, 1, 1, 1, 1, 1, 1, 1, 1, 1, 1, 1, 1, 1]","[566, 663, 889, 599, 529, 543, 520, 440, 544, 512, 544, 473, 560, 502, 570, 696, 511, 608, 513, 535]","['x-x-x', 'unto', 'imagine', 'lucky', 'know', 'costs', 'tour', 'seem', 'expect', 'fear', 'trust', 'hate', 'sure', 'thinks', 'buy', 'casts', 'ran', 'anti', 'knew', 'deny.']",,,,0.0-4.0-0.7,"[1, 1, 1, 0, 0, 0, 1, 0, 1, 1, 0, 0, 0, 1, 1, 1, 1, 1, 0, 0]",,"[566, 663, 889, 599, 529, 543, 520, 440, 544, 512, 544, 473, 560, 502, 570, 696, 511, 608, 513, 535]",,,108689,,18,maze,"['Its', 'coat', 'changes', 'color', 'from', 'brown', 'in', 'the', 'summer', 'to', 'white', 'in', 'the', 'winter', 'to', 'blend', 'in', 'with', 'the', 'snow.']",
1050,test,,,,,,,0.0-4.0-1.7,, ,750,"<img  style=""width: 800px;"" src=assets/images/8.jpeg> <br><br><p>Press spacebar to continue.</p>",,109441,,19,html-keyboard-response,,
1050,test,"[1, 1, 1, 1, 1, 1, 1, 1, 1, 1, 1, 1, 0, 1, 1, 1, 1, 1]","[540, 926, 779, 870, 639, 618, 633, 551, 596, 707, 512, 503, 1416, 540, 624, 536, 688, 689]","['x-x-x', 'behave', 'ago', 'okay', 'bank', 'agree', 'goal', 'trip', 'died', 'prices', 'sell', 'doubt', 'hurt', 'hear', 'option,', 'guy', 'dealership', 'accept.']",,,,0.0-4.0-0.8,"[0, 1, 0, 1, 0, 1, 1, 0, 1, 1, 0, 0, 0, 1, 0, 0, 1, 0]",,"[540, 926, 779, 870, 639, 618, 633, 551, 596, 707, 512, 503, 525, 540, 624, 536, 688, 689]",,,121814,,20,maze,"['The', 'arctic', 'hare', 'also', 'has', 'brown', 'hair', 'in', 'the', 'summer', 'and', 'white', 'hair', 'in', 'winter,', 'to', 'camouflage', 'itself.']",
1050,test,,,,,,,0.0-4.0-1.8,, ,733,"<img  style=""width: 800px;"" src=assets/images/9.jpeg> <br><br><p>Press spacebar to continue.</p>",,122549,,21,html-keyboard-response,,
1050,test,"[1, 1, 1, 1, 1, 1, 1, 1, 1, 1, 1, 1, 1, 1, 1, 1, 1]","[477, 681, 646, 632, 537, 616, 710, 601, 512, 479, 568, 505, 605, 578, 512, 575, 721]","['x-x-x', 'hours', 'math', 'ought', 'okay', 'hate', 'expect', 'yes', 'thank', 'ago', 'drew', 'sir', 'lady', 'tale', 'says', 'laws', 'agent.']",,,,0.0-4.0-0.9,"[0, 1, 1, 1, 1, 0, 0, 0, 0, 0, 1, 0, 0, 0, 0, 0, 1]",,"[477, 681, 646, 632, 537, 616, 710, 601, 512, 479, 568, 505, 605, 578, 512, 575, 721]",,,132509,,22,maze,"['They', 'often', 'dig', 'holes', 'in', 'the', 'ground', 'or', 'under', 'the', 'snow', 'to', 'keep', 'warm', 'and', 'to', 'sleep.']",
1050,test,,,,,,,0.0-4.0-1.9,, ,735,"<img  style=""width: 800px;"" src=assets/images/10.jpeg> <br><br><p>Press spacebar to continue.</p>",,133245,,23,html-keyboard-response,,
1050,test,"[1, 1, 1, 1, 1, 1, 1, 1, 1, 1, 1]","[773, 640, 687, 585, 552, 575, 553, 557, 463, 472, 576]","['x-x-x', 'barges', 'sorcery', 'sad', 'guys', 'lawsuits,', 'door', 'doubt', 'come', 'nor', 'decried.']",,,,0.0-4.0-0.10,"[1, 0, 1, 1, 0, 0, 0, 1, 0, 0, 1]",,"[773, 640, 687, 585, 552, 575, 553, 557, 463, 472, 576]",,,139680,,24,maze,"['Another', 'tundra', 'dweller', 'is', 'the', 'reindeer,', 'also', 'known', 'as', 'the', 'caribou.']",
1050,test,,,,,,,0.0-4.0-1.10,, ,631,"<img  style=""width: 800px;"" src=assets/images/11.jpeg> <br><br><p>Press spacebar to continue.</p>",,140313,,25,html-keyboard-response,,
1050,test,"[0, 1, 1, 1, 1, 1, 1, 1, 1, 1, 0, 1, 1, 1, 1, 1, 1, 1, 1, 1]","[3783, 863, 600, 471, 616, 496, 695, 474, 559, 736, 1534, 1040, 585, 783, 504, 501, 456, 642, 560, 668]","['x-x-x', 'guess', 'drove', 'mid', 'rang,', 'page', 'dean', 'week', 'indeed', 'pamphlet', 'hour', 'abscess,', 'miss,', 'goal', 'award', 'lied,', 'fund', 'text', 'push', 'drags.']",,,,0.0-4.0-0.11,"[1, 1, 1, 1, 0, 0, 1, 1, 1, 0, 1, 1, 0, 1, 0, 0, 0, 0, 1, 1]",,"[532, 863, 600, 471, 616, 496, 695, 474, 559, 736, 647, 1040, 585, 783, 504, 501, 456, 642, 560, 668]",,,156888,,26,maze,"['Unlike', 'other', 'types', 'of', 'deer,', 'both', 'male', 'and', 'female', 'reindeer', 'have', 'antlers,', 'but,', 'like', 'other', 'deer,', 'they', 'live', 'in', 'herds.']",
1050,test,,,,,,,0.0-4.0-1.11,, ,751,"<img  style=""width: 800px;"" src=assets/images/12.jpeg> <br><br><p>Press spacebar to continue.</p>",,157640,,27,html-keyboard-response,,
1050,test,"[1, 1, 1, 1, 0, 1, 0, 1, 1, 1, 1, 1, 1, 1, 1, 1, 0, 1]","[693, 760, 480, 680, 1150, 681, 1686, 607, 840, 657, 464, 504, 607, 505, 495, 542, 1507, 595]","['x-x-x', 'jeopardize', 'knew', 'voiced', 'send', 'summed', 'agent,', 'sideline', 'tinge', 'cowboys', 'son', 'soul', 'anime', 'dared', 'bad', 'boyfriend', 'page', 'trouble.']",,,,0.0-4.0-0.12,"[1, 1, 1, 1, 0, 0, 1, 1, 1, 1, 1, 1, 0, 0, 1, 1, 0, 1]",,"[693, 760, 480, 680, 424, 681, 576, 607, 840, 657, 464, 504, 607, 505, 495, 542, 579, 595]",,,171116,,28,maze,"['During', 'migrations', 'from', 'warmer', 'to', 'cooler', 'areas,', 'reindeer', 'herds', 'combine', 'to', 'form', 'giant', 'herds', 'of', 'thousands', 'of', 'animals.']",
1050,test,,,,,,,0.0-4.0-1.12,, ,647,"<img  style=""width: 800px;"" src=assets/images/13.jpeg> <br><br><p>Press spacebar to continue.</p>",,171764,,29,html-keyboard-response,,
1050,test,"[1, 1, 1, 1, 1, 1, 1, 1, 1, 1, 1, 1, 1, 1, 1, 1, 1, 1]","[589, 654, 602, 512, 654, 770, 448, 553, 543, 696, 647, 713, 400, 655, 558, 459, 480, 527]","['x-x-x', 'nice', 'proclamation', 'worry', 'arrested', 'sorry', 'luck', 'call', 'card', 'knows', 'gift', 'hear', 'join', 'lets', 'idiom', 'plan', 'yes', 'pays.']",,,,0.0-4.0-0.13,"[1, 1, 1, 1, 0, 1, 0, 1, 1, 1, 1, 0, 0, 1, 1, 0, 0, 1]",,"[589, 654, 602, 512, 654, 770, 448, 553, 543, 696, 647, 713, 400, 655, 558, 459, 480, 527]",,,182227,,30,maze,"['Reindeer', 'were', 'domesticated', 'three', 'thousand', 'years', 'ago', 'and', 'have', 'since', 'been', 'used', 'to', 'pull', 'sleds', 'and', 'for', 'milk.']",
1050,test,,,,,,,0.0-4.0-1.13,, ,704,"<img  style=""width: 800px;"" src=assets/images/14.jpeg> <br><br><p>Press spacebar to continue.</p>",,182933,,31,html-keyboard-response,,
1050,test,"[1, 1, 1, 1, 1, 0, 1, 1, 1, 1]","[549, 456, 592, 545, 408, 1559, 616, 488, 464, 439]","['x-x-x', 'luck', 'ago', 'wait', 'sank', 'dollars', 'jobs', 'sick', 'gift', 'frustrations.']",,,,0.0-4.0-0.14,"[0, 0, 0, 0, 0, 0, 1, 1, 0, 0]",,"[549, 456, 592, 545, 408, 616, 616, 488, 464, 439]",,,189052,,32,maze,"['They', 'are', 'the', 'only', 'deer', 'species', 'that', 'has', 'been', 'domesticated.']",
1050,test,,,,,,,0.0-4.0-1.14,, ,827,"<img  style=""width: 800px;"" src=assets/images/15.jpeg> <br><br><p>Press spacebar to continue.</p>",,189880,,33,html-keyboard-response,,
1050,test,,,,,,,0.0-5.0,,"{'age': '29', 'other': 'TEST SOLUTION PLEASE IGNORE', 'errors': '', 'length': '', 'understand': ''}",22925,,,212815,,34,survey-text,,
1050,test,,,,,,,0.0-6.0,,0,1788,<h2>Many thanks for participating!</h2><p>We are trying to see whether this way of reading sentences word by word <br> can be used to measure the language processing in younger people.</p><p>The text was adapted from Wikipedia articles and the images were from Wikipedia and Wikimedia Commons.</p><h1>Press continue to finish. </h1>,,214604,,35,html-button-response,,
1058,test,,,,[],[],[],0.0-0.0,,,,,True,485,False,0,preload,,
1058,test,,,,,,,0.0-1.0,,0,29735,"<h2> Thanks for helping us out by testing out our experiment!<h2><br><h3>Please read these instructions carefully!</h3> </br><p>For this experiment, please place your <b>left index finger on the 'e' key</b> and your <b>right index finger on the 'i' key</b>.</p><p> You will read sentences word by word. However, you will have to guess which word comes next.</p> <p>On each screen you will see <b>two</b> options: one will be the next word in the sentence, and one will not. </p><p><b>Select the word that continues the sentence by pressing 'e' (left-hand) for the word on the left <br>orpressing 'i' (right-hand) for the word on the right.</b></p><p>Select the best word as quickly as you can, but without making too many errors. </p><div><p>Click ""Continue"" to try this on a practice sentence.</p></div>",,30223,,1,html-button-response,,
1058,test,"[1, 1, 1, 1, 1, 1, 0, 1]","[3597, 2713, 7115, 17571, 2365, 2926, 3458, 1459]","['x-x-x', 'no', 'lake', 'grow', 'appeal', 'died', 'sun', 'runs.']",,,,0.0-2.0,"[0, 1, 0, 1, 0, 0, 0, 1]",,"[3597, 2713, 7115, 17571, 2365, 2926, 986, 1459]",,,71458,,2,maze,"['The', 'dog', 'chased', 'the', 'squirrel', 'up', 'a', 'tree.']",
1058,test,,,,,,,0.0-3.0,,0,14922,"<p>Great job! Now you are ready for the main experiment.</p><p> You will now read a paragraph in the same word-by-word way.</p><div><p>Click ""Continue"" to start the experiment.</p>",,86382,,3,html-button-response,,
1058,test,"[1, 1, 1, 1, 1, 1, 1, 1, 1, 1, 1]","[1550, 1659, 1014, 1167, 1169, 894, 1248, 908, 1001, 1065, 917]","['x-x-x', 'relies', 'mailed', 'glad', 'am', 'barns', 'carry', 'case', 'door', 'hope', 'award.']",,,,0.0-4.0-0.0,"[0, 1, 1, 0, 0, 1, 1, 1, 1, 1, 0]",,"[1550, 1659, 1014, 1167, 1169, 894, 1248, 908, 1001, 1065, 917]",,,98994,,4,maze,"['The', 'arctic', 'tundra', 'is', 'a', 'biome', 'found', 'in', 'the', 'far', 'north.']",
1058,test,,,,,,,0.0-4.0-1.0,, ,1401,"<img  style=""width: 800px;"" src=assets/images/1.jpeg> <br><br><p>Press spacebar to continue.</p>",,100397,,5,html-keyboard-response,,
1058,test,"[1, 1, 1, 1, 1, 1, 1, 1, 1, 1, 1, 1, 1, 1]","[1164, 1225, 916, 1583, 1721, 820, 1208, 1076, 1042, 1014, 897, 1024, 1610, 896]","['x-x-x', 'lose', 'eluded,', 'info', 'missed', 'pre', 'pamphlet', 'art', 'mom', 'photographer', 'girl', 'judge', 'imagine', 'witness.']",,,,0.0-4.0-0.1,"[1, 1, 0, 1, 0, 0, 0, 1, 1, 1, 1, 1, 0, 0]",,"[1164, 1225, 916, 1583, 1721, 820, 1208, 1076, 1042, 1014, 897, 1024, 1610, 896]",,,116604,,6,maze,"['In', 'the', 'tundra,', 'tree', 'growth', 'is', 'hindered', 'by', 'low', 'temperatures', 'and', 'short', 'growing', 'seasons.']",
1058,test,,,,,,,0.0-4.0-1.1,, ,1119,"<img  style=""width: 800px;"" src=assets/images/2.jpeg> <br><br><p>Press spacebar to continue.</p>",,117725,,7,html-keyboard-response,,
1058,test,"[1, 1, 1, 1, 1, 1, 1, 1, 1, 1, 1, 1, 1, 0, 1, 1, 1, 1, 1, 1, 1, 1, 1, 1, 1]","[1240, 1822, 950, 1512, 1027, 841, 1030, 1004, 980, 1275, 1052, 1290, 1032, 2300, 1375, 1229, 1780, 1898, 619, 974, 1038, 779, 718, 836, 3078]","['x-x-x', 'fact', 'box', 'meant', 'sir', 'admire', 'try', 'ask', 'aunt', 'learn', 'figuring', 'honor', 'wife', 'appears', 'glad', 'badge,', 'fun', 'intro', 'cared', 'text', 'soul', 'robin', 'says', 'opinion', 'photo.']",,,,0.0-4.0-0.2,"[0, 0, 1, 0, 1, 0, 1, 0, 1, 1, 0, 1, 0, 0, 1, 0, 0, 1, 0, 0, 0, 1, 0, 0, 1]",,"[1240, 1822, 950, 1512, 1027, 841, 1030, 1004, 980, 1275, 1052, 1290, 1032, 1053, 1375, 1229, 1780, 1898, 619, 974, 1038, 779, 718, 836, 3078]",,,149415,,8,maze,"['Most', 'of', 'the', 'water', 'is', 'frozen', 'in', 'the', 'soil', 'which', 'prevents', 'trees', 'from', 'putting', 'down', 'roots,', 'and', 'harsh', 'winds', 'also', 'keep', 'trees', 'from', 'growing', 'large.']",
1058,test,,,,,,,0.0-4.0-1.2,, ,1335,"<img  style=""width: 800px;"" src=assets/images/3.jpeg> <br><br><p>Press spacebar to continue.</p>",,150752,,9,html-keyboard-response,,
1058,test,"[1, 1, 1, 1, 1, 1, 1, 1, 1, 1, 1]","[965, 1147, 1318, 886, 1604, 1124, 905, 1149, 1035, 1063, 925]","['x-x-x', 'excuse', 'yeah', 'equinox,', 'fewest,', 'far', 'fenders', 'trip', 'ride', 'guys', 'wrench.']",,,,0.0-4.0-0.3,"[1, 0, 1, 0, 0, 1, 0, 1, 1, 0, 0]",,"[965, 1147, 1318, 886, 1604, 1124, 905, 1149, 1035, 1063, 925]",,,162884,,10,maze,"['Instead,', 'plants', 'like', 'grasses,', 'mosses,', 'and', 'lichens', 'grow', 'in', 'the', 'tundra.']",
1058,test,,,,,,,0.0-4.0-1.3,, ,2839,"<img  style=""width: 800px;"" src=assets/images/4.jpeg> <br><br><p>Press spacebar to continue.</p>",,165725,,11,html-keyboard-response,,
1058,test,"[1, 1, 1, 1, 1, 1, 1, 1, 1, 1, 0, 1, 1, 1, 1, 1, 1, 1, 1]","[746, 1458, 1135, 994, 921, 1048, 1096, 976, 1029, 1019, 2621, 926, 1841, 1442, 980, 1625, 1086, 863, 1058]","['x-x-x', 'else', 'eat', 'jobs', 'hire', 'guess', 'cent', 'wife', 'sir', 'keypad', 'professor,', 'dad', 'vote', 'card', 'hall', 'amendment', 'herself', 'lady', 'focus.']",,,,0.0-4.0-0.4,"[0, 0, 0, 0, 1, 1, 1, 0, 0, 1, 1, 1, 1, 0, 0, 1, 1, 0, 0]",,"[746, 1458, 1135, 994, 921, 1048, 1096, 976, 1029, 1019, 1039, 926, 1841, 1442, 980, 1625, 1086, 863, 1058]",,,188601,,12,maze,"['The', 'deep', 'and', 'cold', 'snow', 'makes', 'life', 'in', 'the', 'tundra', 'difficult,', 'so', 'not', 'very', 'many', 'different', 'animals', 'live', 'there.']",
1058,test,,,,,,,0.0-4.0-1.4,, ,1635,"<img  style=""width: 800px;"" src=assets/images/5.jpeg> <br><br><p>Press spacebar to continue.</p>",,190238,,13,html-keyboard-response,,
1058,test,"[1, 1, 1, 1, 1, 1, 1, 1, 1, 1, 1, 1]","[822, 2158, 903, 756, 805, 959, 1121, 1156, 843, 698, 1099, 676]","['x-x-x', 'watched', 'cent', 'pre', 'lady', 'commentator', 'mom', 'embassy', 'hall', 'ask', 'sided', 'actress.']",,,,0.0-4.0-0.5,"[1, 1, 0, 1, 0, 0, 1, 1, 0, 1, 1, 1]",,"[822, 2158, 903, 756, 805, 959, 1121, 1156, 843, 698, 1099, 676]",,,202245,,14,maze,"['The', 'animals', 'that', 'do', 'have', 'adaptations', 'to', 'survive', 'in', 'the', 'harsh', 'climate.']",
1058,test,,,,,,,0.0-4.0-1.5,, ,1081,"<img  style=""width: 800px;"" src=assets/images/6.jpeg> <br><br><p>Press spacebar to continue.</p>",,203328,,15,html-keyboard-response,,
1058,test,"[1, 1, 1, 1, 0, 1, 1, 1, 1, 1, 1, 1, 1, 1, 1, 1, 1, 1]","[728, 871, 941, 1421, 1219, 2006, 1026, 1015, 941, 1036, 1175, 920, 1242, 961, 1077, 1130, 1324, 1172]","['x-x-x', 'tapped', 'sec', 'taxes', 'edit', 'miss', 'yeah', 'argue', 'til', 'fate', 'click', 'mortgage', 'dad', 'says', 'classrooms', 'sad', 'bet', 'gladly.']",,,,0.0-4.0-0.6,"[0, 0, 0, 0, 1, 0, 1, 0, 1, 0, 1, 0, 0, 1, 0, 0, 0, 0]",,"[728, 871, 941, 1421, 687, 2006, 1026, 1015, 941, 1036, 1175, 920, 1242, 961, 1077, 1130, 1324, 1172]",,,223545,,16,maze,"['The', 'arctic', 'fox', 'keeps', 'warm', 'with', 'a', 'thick', 'fur', 'coat', 'which', 'provides', 'the', 'best', 'insulation', 'of', 'any', 'mammal.']",
1058,test,,,,,,,0.0-4.0-1.6,, ,1103,"<img  style=""width: 800px;"" src=assets/images/7.jpeg> <br><br><p>Press spacebar to continue.</p>",,224649,,17,html-keyboard-response,,
1058,test,"[1, 1, 1, 1, 1, 1, 1, 0, 1, 1, 1, 1, 1, 1, 1, 1, 1, 1, 1, 1]","[980, 915, 1801, 922, 1459, 1010, 968, 2719, 970, 1044, 1308, 1027, 961, 1030, 1225, 1567, 1338, 1747, 1007, 959]","['x-x-x', 'unto', 'imagine', 'lucky', 'know', 'costs', 'tour', 'seem', 'expect', 'fear', 'trust', 'hate', 'sure', 'thinks', 'buy', 'casts', 'ran', 'anti', 'knew', 'deny.']",,,,0.0-4.0-0.7,"[1, 0, 1, 0, 0, 1, 0, 1, 0, 0, 0, 0, 1, 1, 0, 0, 0, 1, 0, 1]",,"[980, 915, 1801, 922, 1459, 1010, 968, 1657, 970, 1044, 1308, 1027, 961, 1030, 1225, 1567, 1338, 1747, 1007, 959]",,,249617,,18,maze,"['Its', 'coat', 'changes', 'color', 'from', 'brown', 'in', 'the', 'summer', 'to', 'white', 'in', 'the', 'winter', 'to', 'blend', 'in', 'with', 'the', 'snow.']",
1058,test,,,,,,,0.0-4.0-1.7,, ,4069,"<img  style=""width: 800px;"" src=assets/images/8.jpeg> <br><br><p>Press spacebar to continue.</p>",,253688,,19,html-keyboard-response,,
1058,test,"[1, 1, 1, 1, 1, 1, 1, 1, 1, 1, 1, 1, 1, 1, 1, 1, 1, 1]","[860, 794, 1226, 1221, 1550, 1080, 1292, 977, 3142, 1040, 978, 1830, 1088, 1011, 1352, 1166, 1025, 897]","['x-x-x', 'behave', 'ago', 'okay', 'bank', 'agree', 'goal', 'trip', 'died', 'prices', 'sell', 'doubt', 'hurt', 'hear', 'option,', 'guy', 'dealership', 'accept.']",,,,0.0-4.0-0.8,"[0, 0, 1, 1, 1, 0, 1, 0, 0, 1, 1, 0, 0, 1, 1, 0, 1, 0]",,"[860, 794, 1226, 1221, 1550, 1080, 1292, 977, 3142, 1040, 978, 1830, 1088, 1011, 1352, 1166, 1025, 897]",,,276233,,20,maze,"['The', 'arctic', 'hare', 'also', 'has', 'brown', 'hair', 'in', 'the', 'summer', 'and', 'white', 'hair', 'in', 'winter,', 'to', 'camouflage', 'itself.']",
1058,test,,,,,,,0.0-4.0-1.8,, ,1038,"<img  style=""width: 800px;"" src=assets/images/9.jpeg> <br><br><p>Press spacebar to continue.</p>",,277272,,21,html-keyboard-response,,
1058,test,"[1, 1, 1, 1, 1, 1, 1, 1, 1, 1, 1, 1, 1, 1, 1, 1, 1]","[985, 1080, 1331, 1257, 1214, 1267, 1554, 3062, 1275, 844, 590, 691, 892, 906, 1074, 1440, 868]","['x-x-x', 'hours', 'math', 'ought', 'okay', 'hate', 'expect', 'yes', 'thank', 'ago', 'drew', 'sir', 'lady', 'tale', 'says', 'laws', 'agent.']",,,,0.0-4.0-0.9,"[0, 1, 1, 1, 0, 1, 1, 0, 0, 1, 1, 1, 1, 1, 0, 0, 1]",,"[985, 1080, 1331, 1257, 1214, 1267, 1554, 3062, 1275, 844, 590, 691, 892, 906, 1074, 1440, 868]",,,297613,,22,maze,"['They', 'often', 'dig', 'holes', 'in', 'the', 'ground', 'or', 'under', 'the', 'snow', 'to', 'keep', 'warm', 'and', 'to', 'sleep.']",
1058,test,,,,,,,0.0-4.0-1.9,, ,1204,"<img  style=""width: 800px;"" src=assets/images/10.jpeg> <br><br><p>Press spacebar to continue.</p>",,298819,,23,html-keyboard-response,,
1058,test,"[1, 1, 1, 1, 1, 1, 1, 1, 1, 1, 1]","[794, 1039, 1428, 1450, 685, 1242, 1193, 1403, 718, 1520, 823]","['x-x-x', 'barges', 'sorcery', 'sad', 'guys', 'lawsuits,', 'door', 'doubt', 'come', 'nor', 'decried.']",,,,0.0-4.0-0.10,"[0, 1, 1, 1, 0, 1, 0, 0, 0, 0, 1]",,"[794, 1039, 1428, 1450, 685, 1242, 1193, 1403, 718, 1520, 823]",,,311124,,24,maze,"['Another', 'tundra', 'dweller', 'is', 'the', 'reindeer,', 'also', 'known', 'as', 'the', 'caribou.']",
1058,test,,,,,,,0.0-4.0-1.10,, ,1395,"<img  style=""width: 800px;"" src=assets/images/11.jpeg> <br><br><p>Press spacebar to continue.</p>",,312520,,25,html-keyboard-response,,
1058,test,"[1, 1, 1, 1, 1, 1, 1, 1, 1, 1, 1, 1, 0, 1, 1, 1, 1, 1, 1, 1]","[828, 2372, 798, 1376, 1031, 1577, 1098, 1196, 826, 882, 820, 1011, 2293, 834, 1013, 871, 878, 1422, 949, 939]","['x-x-x', 'guess', 'drove', 'mid', 'rang,', 'page', 'dean', 'week', 'indeed', 'pamphlet', 'hour', 'abscess,', 'miss,', 'goal', 'award', 'lied,', 'fund', 'text', 'push', 'drags.']",,,,0.0-4.0-0.11,"[1, 1, 0, 1, 1, 1, 1, 1, 1, 0, 1, 1, 0, 1, 1, 1, 0, 0, 0, 0]",,"[828, 2372, 798, 1376, 1031, 1577, 1098, 1196, 826, 882, 820, 1011, 1198, 834, 1013, 871, 878, 1422, 949, 939]",,,335545,,26,maze,"['Unlike', 'other', 'types', 'of', 'deer,', 'both', 'male', 'and', 'female', 'reindeer', 'have', 'antlers,', 'but,', 'like', 'other', 'deer,', 'they', 'live', 'in', 'herds.']",
1058,test,,,,,,,0.0-4.0-1.11,, ,1289,"<img  style=""width: 800px;"" src=assets/images/12.jpeg> <br><br><p>Press spacebar to continue.</p>",,336835,,27,html-keyboard-response,,
1058,test,"[1, 1, 1, 1, 1, 1, 1, 1, 1, 1, 1, 1, 1, 1, 1, 1, 1, 1]","[984, 1615, 1083, 3915, 1946, 1484, 1133, 883, 1113, 1149, 820, 1175, 864, 916, 861, 892, 894, 765]","['x-x-x', 'jeopardize', 'knew', 'voiced', 'send', 'summed', 'agent,', 'sideline', 'tinge', 'cowboys', 'son', 'soul', 'anime', 'dared', 'bad', 'boyfriend', 'page', 'trouble.']",,,,0.0-4.0-0.12,"[0, 1, 0, 1, 0, 1, 1, 0, 1, 1, 0, 1, 0, 0, 0, 0, 1, 0]",,"[984, 1615, 1083, 3915, 1946, 1484, 1133, 883, 1113, 1149, 820, 1175, 864, 916, 861, 892, 894, 765]",,,359339,,28,maze,"['During', 'migrations', 'from', 'warmer', 'to', 'cooler', 'areas,', 'reindeer', 'herds', 'combine', 'to', 'form', 'giant', 'herds', 'of', 'thousands', 'of', 'animals.']",
1058,test,,,,,,,0.0-4.0-1.12,, ,1101,"<img  style=""width: 800px;"" src=assets/images/13.jpeg> <br><br><p>Press spacebar to continue.</p>",,360441,,29,html-keyboard-response,,
1058,test,"[1, 1, 1, 1, 0, 1, 1, 1, 1, 1, 1, 1, 1, 1, 1, 1, 1, 1]","[730, 1969, 1205, 2714, 2646, 1617, 937, 1064, 945, 2344, 1187, 1410, 1339, 1114, 1089, 1029, 1138, 1124]","['x-x-x', 'nice', 'proclamation', 'worry', 'arrested', 'sorry', 'luck', 'call', 'card', 'knows', 'gift', 'hear', 'join', 'lets', 'idiom', 'plan', 'yes', 'pays.']",,,,0.0-4.0-0.13,"[0, 1, 0, 0, 1, 0, 1, 0, 1, 1, 0, 0, 0, 0, 0, 1, 1, 0]",,"[730, 1969, 1205, 2714, 1346, 1617, 937, 1064, 945, 2344, 1187, 1410, 1339, 1114, 1089, 1029, 1138, 1124]",,,386048,,30,maze,"['Reindeer', 'were', 'domesticated', 'three', 'thousand', 'years', 'ago', 'and', 'have', 'since', 'been', 'used', 'to', 'pull', 'sleds', 'and', 'for', 'milk.']",
1058,test,,,,,,,0.0-4.0-1.13,, ,1093,"<img  style=""width: 800px;"" src=assets/images/14.jpeg> <br><br><p>Press spacebar to continue.</p>",,387143,,31,html-keyboard-response,,
1058,test,"[1, 1, 1, 1, 1, 1, 1, 1, 1, 1]","[1539, 2093, 770, 1320, 739, 940, 785, 888, 1428, 962]","['x-x-x', 'luck', 'ago', 'wait', 'sank', 'dollars', 'jobs', 'sick', 'gift', 'frustrations.']",,,,0.0-4.0-0.14,"[1, 0, 0, 0, 0, 0, 0, 1, 1, 0]",,"[1539, 2093, 770, 1320, 739, 940, 785, 888, 1428, 962]",,,398617,,32,maze,"['They', 'are', 'the', 'only', 'deer', 'species', 'that', 'has', 'been', 'domesticated.']",
1058,test,,,,,,,0.0-4.0-1.14,, ,2696,"<img  style=""width: 800px;"" src=assets/images/15.jpeg> <br><br><p>Press spacebar to continue.</p>",,401314,,33,html-keyboard-response,,
1058,test,,,,,,,0.0-5.0,,"{'age': '11', 'other': 'no', 'errors': 'no', 'length': 'Fine', 'understand': ""I didn't get that it was one big sentence made by the choices.""}",70976,,,472298,,34,survey-text,,
1058,test,,,,,,,0.0-6.0,,0,10924,<h2>Many thanks for participating!</h2><p>We are trying to see whether this way of reading sentences word by word <br> can be used to measure the language processing in younger people.</p><p>The text was adapted from Wikipedia articles and the images were from Wikipedia and Wikimedia Commons.</p><h1>Press continue to finish. </h1>,,483225,,35,html-button-response,,
1057,test,,,,[],[],[],0.0-0.0,,,,,True,1306,False,0,preload,,
1057,test,,,,,,,0.0-1.0,,0,42643,"<h2> Thanks for helping us out by testing out our experiment!<h2><br><h3>Please read these instructions carefully!</h3> </br><p>For this experiment, please place your <b>left index finger on the 'e' key</b> and your <b>right index finger on the 'i' key</b>.</p><p> You will read sentences word by word. However, you will have to guess which word comes next.</p> <p>On each screen you will see <b>two</b> options: one will be the next word in the sentence, and one will not. </p><p><b>Select the word that continues the sentence by pressing 'e' (left-hand) for the word on the left <br>orpressing 'i' (right-hand) for the word on the right.</b></p><p>Select the best word as quickly as you can, but without making too many errors. </p><div><p>Click ""Continue"" to try this on a practice sentence.</p></div>",,43951,,1,html-button-response,,
1057,test,"[1, 1, 1, 1, 1, 1, 1, 1]","[9782, 3358, 1664, 1485, 2163, 1206, 1018, 1149]","['x-x-x', 'no', 'lake', 'grow', 'appeal', 'died', 'sun', 'runs.']",,,,0.0-2.0,"[1, 1, 0, 0, 1, 0, 0, 1]",,"[9782, 3358, 1664, 1485, 2163, 1206, 1018, 1149]",,,65797,,2,maze,"['The', 'dog', 'chased', 'the', 'squirrel', 'up', 'a', 'tree.']",
1057,test,,,,,,,0.0-3.0,,0,10502,"<p>Great job! Now you are ready for the main experiment.</p><p> You will now read a paragraph in the same word-by-word way.</p><div><p>Click ""Continue"" to start the experiment.</p>",,76300,,3,html-button-response,,
1057,test,"[1, 1, 1, 1, 1, 1, 1, 1, 1, 1, 1]","[1582, 1235, 1045, 783, 1412, 1221, 833, 847, 826, 847, 826]","['x-x-x', 'relies', 'mailed', 'glad', 'am', 'barns', 'carry', 'case', 'door', 'hope', 'award.']",,,,0.0-4.0-0.0,"[0, 1, 1, 1, 1, 0, 1, 0, 0, 1, 0]",,"[1582, 1235, 1045, 783, 1412, 1221, 833, 847, 826, 847, 826]",,,87773,,4,maze,"['The', 'arctic', 'tundra', 'is', 'a', 'biome', 'found', 'in', 'the', 'far', 'north.']",
1059,test,,,,[],[],[],0.0-0.0,,,,,True,2683,False,0,preload,,
1059,test,,,,,,,0.0-1.0,,0,57605,"<h2> Thanks for helping us out by testing out our experiment!<h2><br><h3>Please read these instructions carefully!</h3> </br><p>For this experiment, please place your <b>left index finger on the 'e' key</b> and your <b>right index finger on the 'i' key</b>.</p><p> You will read sentences word by word. However, you will have to guess which word comes next.</p> <p>On each screen you will see <b>two</b> options: one will be the next word in the sentence, and one will not. </p><p><b>Select the word that continues the sentence by pressing 'e' (left-hand) for the word on the left <br>orpressing 'i' (right-hand) for the word on the right.</b></p><p>Select the best word as quickly as you can, but without making too many errors. </p><div><p>Click ""Continue"" to try this on a practice sentence.</p></div>",,60288,,1,html-button-response,,
1059,test,"[1, 1, 1, 1, 1, 1, 1, 1]","[3769, 1885, 1368, 959, 792, 1453, 1369, 791]","['x-x-x', 'no', 'lake', 'grow', 'appeal', 'died', 'sun', 'runs.']",,,,0.0-2.0,"[0, 0, 0, 0, 0, 1, 1, 0]",,"[3769, 1885, 1368, 959, 792, 1453, 1369, 791]",,,72702,,2,maze,"['The', 'dog', 'chased', 'the', 'squirrel', 'up', 'a', 'tree.']",
1059,test,,,,,,,0.0-3.0,,0,6589,"<p>Great job! Now you are ready for the main experiment.</p><p> You will now read a paragraph in the same word-by-word way.</p><div><p>Click ""Continue"" to start the experiment.</p>",,79292,,3,html-button-response,,
1059,test,"[1, 1, 1, 1, 1, 1, 1, 1, 1, 1, 1]","[1589, 1288, 1304, 913, 1379, 1238, 977, 1233, 1203, 1519, 758]","['x-x-x', 'relies', 'mailed', 'glad', 'am', 'barns', 'carry', 'case', 'door', 'hope', 'award.']",,,,0.0-4.0-0.0,"[0, 1, 1, 1, 1, 0, 0, 1, 0, 1, 0]",,"[1589, 1288, 1304, 913, 1379, 1238, 977, 1233, 1203, 1519, 758]",,,92699,,4,maze,"['The', 'arctic', 'tundra', 'is', 'a', 'biome', 'found', 'in', 'the', 'far', 'north.']",
1059,test,,,,,,,0.0-4.0-1.0,, ,2523,"<img  style=""width: 800px;"" src=assets/images/1.jpeg> <br><br><p>Press spacebar to continue.</p>",,95229,,5,html-keyboard-response,,
1059,test,"[1, 1, 1, 0, 1, 1, 1, 1, 1, 1, 1, 1, 1, 1]","[1867, 838, 1555, 3026, 2141, 828, 1537, 808, 978, 871, 944, 861, 1906, 1220]","['x-x-x', 'lose', 'eluded,', 'info', 'missed', 'pre', 'pamphlet', 'art', 'mom', 'photographer', 'girl', 'judge', 'imagine', 'witness.']",,,,0.0-4.0-0.1,"[0, 1, 1, 0, 0, 0, 1, 1, 1, 0, 0, 0, 1, 0]",,"[1867, 838, 1555, 1545, 2141, 828, 1537, 808, 978, 871, 944, 861, 1906, 1220]",,,114617,,6,maze,"['In', 'the', 'tundra,', 'tree', 'growth', 'is', 'hindered', 'by', 'low', 'temperatures', 'and', 'short', 'growing', 'seasons.']",
1059,test,,,,,,,0.0-4.0-1.1,, ,4270,"<img  style=""width: 800px;"" src=assets/images/2.jpeg> <br><br><p>Press spacebar to continue.</p>",,118890,,7,html-keyboard-response,,
1059,test,"[1, 1, 1, 1, 1, 1, 1, 1, 1, 1, 1, 0, 1, 0, 1, 1, 1, 0, 1, 1, 1, 1, 1, 1, 1]","[859, 797, 1056, 1759, 707, 909, 1129, 764, 1622, 1082, 758, 1875, 1674, 2788, 847, 627, 906, 1600, 835, 1029, 662, 897, 867, 914, 1550]","['x-x-x', 'fact', 'box', 'meant', 'sir', 'admire', 'try', 'ask', 'aunt', 'learn', 'figuring', 'honor', 'wife', 'appears', 'glad', 'badge,', 'fun', 'intro', 'cared', 'text', 'soul', 'robin', 'says', 'opinion', 'photo.']",,,,0.0-4.0-0.2,"[0, 0, 0, 0, 0, 1, 1, 0, 0, 1, 0, 1, 0, 1, 1, 1, 1, 1, 0, 0, 1, 1, 0, 0, 0]",,"[859, 797, 1056, 1759, 707, 909, 1129, 764, 1622, 1082, 758, 1087, 1674, 2109, 847, 627, 906, 1023, 835, 1029, 662, 897, 867, 914, 1550]",,,147420,,8,maze,"['Most', 'of', 'the', 'water', 'is', 'frozen', 'in', 'the', 'soil', 'which', 'prevents', 'trees', 'from', 'putting', 'down', 'roots,', 'and', 'harsh', 'winds', 'also', 'keep', 'trees', 'from', 'growing', 'large.']",
1059,test,,,,,,,0.0-4.0-1.2,, ,10437,"<img  style=""width: 800px;"" src=assets/images/3.jpeg> <br><br><p>Press spacebar to continue.</p>",,157859,,9,html-keyboard-response,,
1059,test,"[1, 1, 1, 1, 1, 1, 1, 1, 1, 1, 1]","[916, 695, 1236, 1614, 1177, 828, 1251, 1268, 1356, 814, 1148]","['x-x-x', 'excuse', 'yeah', 'equinox,', 'fewest,', 'far', 'fenders', 'trip', 'ride', 'guys', 'wrench.']",,,,0.0-4.0-0.3,"[0, 0, 0, 1, 0, 1, 1, 0, 1, 0, 0]",,"[916, 695, 1236, 1614, 1177, 828, 1251, 1268, 1356, 814, 1148]",,,170171,,10,maze,"['Instead,', 'plants', 'like', 'grasses,', 'mosses,', 'and', 'lichens', 'grow', 'in', 'the', 'tundra.']",
1059,test,,,,,,,0.0-4.0-1.3,, ,4749,"<img  style=""width: 800px;"" src=assets/images/4.jpeg> <br><br><p>Press spacebar to continue.</p>",,174923,,11,html-keyboard-response,,
1059,test,"[1, 1, 1, 1, 1, 1, 1, 1, 1, 1, 1, 1, 1, 1, 1, 1, 1, 1, 1]","[726, 938, 861, 841, 728, 815, 917, 852, 930, 573, 1282, 856, 1156, 883, 983, 1480, 805, 903, 787]","['x-x-x', 'else', 'eat', 'jobs', 'hire', 'guess', 'cent', 'wife', 'sir', 'keypad', 'professor,', 'dad', 'vote', 'card', 'hall', 'amendment', 'herself', 'lady', 'focus.']",,,,0.0-4.0-0.4,"[1, 0, 1, 1, 0, 0, 1, 1, 0, 0, 0, 1, 0, 0, 0, 1, 1, 0, 0]",,"[726, 938, 861, 841, 728, 815, 917, 852, 930, 573, 1282, 856, 1156, 883, 983, 1480, 805, 903, 787]",,,192246,,12,maze,"['The', 'deep', 'and', 'cold', 'snow', 'makes', 'life', 'in', 'the', 'tundra', 'difficult,', 'so', 'not', 'very', 'many', 'different', 'animals', 'live', 'there.']",
1059,test,,,,,,,0.0-4.0-1.4,, ,6808,"<img  style=""width: 800px;"" src=assets/images/5.jpeg> <br><br><p>Press spacebar to continue.</p>",,199056,,13,html-keyboard-response,,
1059,test,"[1, 1, 1, 1, 1, 1, 1, 1, 0, 1, 1, 1]","[665, 919, 855, 719, 788, 1580, 740, 738, 1387, 878, 1027, 705]","['x-x-x', 'watched', 'cent', 'pre', 'lady', 'commentator', 'mom', 'embassy', 'hall', 'ask', 'sided', 'actress.']",,,,0.0-4.0-0.5,"[0, 1, 1, 0, 0, 0, 1, 0, 0, 0, 1, 0]",,"[665, 919, 855, 719, 788, 1580, 740, 738, 675, 878, 1027, 705]",,,210065,,14,maze,"['The', 'animals', 'that', 'do', 'have', 'adaptations', 'to', 'survive', 'in', 'the', 'harsh', 'climate.']",
1059,test,,,,,,,0.0-4.0-1.5,, ,14034,"<img  style=""width: 800px;"" src=assets/images/6.jpeg> <br><br><p>Press spacebar to continue.</p>",,224102,,15,html-keyboard-response,,
1059,test,"[1, 1, 1, 1, 1, 1, 1, 1, 1, 1, 1, 1, 1, 1, 1, 1, 1, 1]","[703, 777, 858, 1075, 896, 846, 933, 1038, 885, 1264, 2020, 1062, 946, 1482, 1274, 937, 1645, 1936]","['x-x-x', 'tapped', 'sec', 'taxes', 'edit', 'miss', 'yeah', 'argue', 'til', 'fate', 'click', 'mortgage', 'dad', 'says', 'classrooms', 'sad', 'bet', 'gladly.']",,,,0.0-4.0-0.6,"[1, 1, 1, 1, 0, 0, 0, 1, 0, 1, 1, 0, 0, 0, 0, 1, 1, 1]",,"[703, 777, 858, 1075, 896, 846, 933, 1038, 885, 1264, 2020, 1062, 946, 1482, 1274, 937, 1645, 1936]",,,244689,,16,maze,"['The', 'arctic', 'fox', 'keeps', 'warm', 'with', 'a', 'thick', 'fur', 'coat', 'which', 'provides', 'the', 'best', 'insulation', 'of', 'any', 'mammal.']",
1059,test,,,,,,,0.0-4.0-1.6,, ,12475,"<img  style=""width: 800px;"" src=assets/images/7.jpeg> <br><br><p>Press spacebar to continue.</p>",,257167,,17,html-keyboard-response,,
1059,test,"[1, 1, 1, 1, 1, 1, 1, 1, 1, 1, 1, 1, 1, 1, 1, 1, 1, 1, 1, 1]","[772, 891, 792, 529, 963, 799, 898, 1330, 612, 663, 570, 635, 765, 921, 1551, 1080, 715, 791, 1096, 682]","['x-x-x', 'unto', 'imagine', 'lucky', 'know', 'costs', 'tour', 'seem', 'expect', 'fear', 'trust', 'hate', 'sure', 'thinks', 'buy', 'casts', 'ran', 'anti', 'knew', 'deny.']",,,,0.0-4.0-0.7,"[0, 1, 0, 0, 1, 0, 0, 1, 0, 1, 0, 0, 1, 1, 0, 0, 1, 1, 1, 1]",,"[772, 891, 792, 529, 963, 799, 898, 1330, 612, 663, 570, 635, 765, 921, 1551, 1080, 715, 791, 1096, 682]",,,274233,,18,maze,"['Its', 'coat', 'changes', 'color', 'from', 'brown', 'in', 'the', 'summer', 'to', 'white', 'in', 'the', 'winter', 'to', 'blend', 'in', 'with', 'the', 'snow.']",
1059,test,,,,,,,0.0-4.0-1.7,, ,15134,"<img  style=""width: 800px;"" src=assets/images/8.jpeg> <br><br><p>Press spacebar to continue.</p>",,289369,,19,html-keyboard-response,,
1059,test,"[1, 1, 1, 1, 1, 1, 1, 1, 0, 1, 1, 1, 1, 1, 1, 1, 1, 1]","[632, 889, 1810, 849, 776, 880, 1010, 692, 1291, 585, 704, 670, 670, 769, 1293, 719, 965, 809]","['x-x-x', 'behave', 'ago', 'okay', 'bank', 'agree', 'goal', 'trip', 'died', 'prices', 'sell', 'doubt', 'hurt', 'hear', 'option,', 'guy', 'dealership', 'accept.']",,,,0.0-4.0-0.8,"[1, 0, 0, 1, 0, 1, 1, 1, 0, 0, 1, 0, 1, 1, 1, 1, 0, 1]",,"[632, 889, 1810, 849, 776, 880, 1010, 692, 656, 585, 704, 670, 670, 769, 1293, 719, 965, 809]",,,305393,,20,maze,"['The', 'arctic', 'hare', 'also', 'has', 'brown', 'hair', 'in', 'the', 'summer', 'and', 'white', 'hair', 'in', 'winter,', 'to', 'camouflage', 'itself.']",
1059,test,,,,,,,0.0-4.0-1.8,, ,4359,"<img  style=""width: 800px;"" src=assets/images/9.jpeg> <br><br><p>Press spacebar to continue.</p>",,309753,,21,html-keyboard-response,,
1059,test,"[1, 1, 1, 1, 1, 1, 1, 0, 1, 1, 1, 0, 1, 1, 1, 1, 1]","[1129, 808, 1027, 992, 630, 607, 617, 3090, 1387, 648, 608, 1219, 1185, 1223, 739, 726, 1256]","['x-x-x', 'hours', 'math', 'ought', 'okay', 'hate', 'expect', 'yes', 'thank', 'ago', 'drew', 'sir', 'lady', 'tale', 'says', 'laws', 'agent.']",,,,0.0-4.0-0.9,"[0, 0, 1, 0, 1, 1, 0, 0, 1, 1, 0, 0, 0, 0, 0, 0, 1]",,"[1129, 808, 1027, 992, 630, 607, 617, 628, 1387, 648, 608, 695, 1185, 1223, 739, 726, 1256]",,,327653,,22,maze,"['They', 'often', 'dig', 'holes', 'in', 'the', 'ground', 'or', 'under', 'the', 'snow', 'to', 'keep', 'warm', 'and', 'to', 'sleep.']",
1059,test,,,,,,,0.0-4.0-1.9,, ,3515,"<img  style=""width: 800px;"" src=assets/images/10.jpeg> <br><br><p>Press spacebar to continue.</p>",,331171,,23,html-keyboard-response,,
1059,test,"[1, 1, 1, 1, 1, 1, 1, 1, 1, 1, 1]","[898, 866, 1223, 705, 662, 1011, 783, 634, 735, 913, 1026]","['x-x-x', 'barges', 'sorcery', 'sad', 'guys', 'lawsuits,', 'door', 'doubt', 'come', 'nor', 'decried.']",,,,0.0-4.0-0.10,"[0, 1, 1, 0, 1, 1, 0, 0, 1, 0, 1]",,"[898, 866, 1223, 705, 662, 1011, 783, 634, 735, 913, 1026]",,,340632,,24,maze,"['Another', 'tundra', 'dweller', 'is', 'the', 'reindeer,', 'also', 'known', 'as', 'the', 'caribou.']",
1059,test,,,,,,,0.0-4.0-1.10,, ,3159,"<img  style=""width: 800px;"" src=assets/images/11.jpeg> <br><br><p>Press spacebar to continue.</p>",,343792,,25,html-keyboard-response,,
1059,test,"[1, 1, 1, 1, 1, 1, 1, 1, 1, 1, 0, 1, 1, 1, 1, 1, 1, 1, 1, 1]","[741, 815, 801, 765, 800, 653, 2490, 783, 528, 1153, 2789, 813, 2053, 1101, 756, 641, 649, 1350, 688, 1744]","['x-x-x', 'guess', 'drove', 'mid', 'rang,', 'page', 'dean', 'week', 'indeed', 'pamphlet', 'hour', 'abscess,', 'miss,', 'goal', 'award', 'lied,', 'fund', 'text', 'push', 'drags.']",,,,0.0-4.0-0.11,"[0, 1, 0, 0, 0, 0, 0, 1, 0, 0, 1, 1, 1, 0, 1, 1, 0, 0, 1, 0]",,"[741, 815, 801, 765, 800, 653, 2490, 783, 528, 1153, 806, 813, 2053, 1101, 756, 641, 649, 1350, 688, 1744]",,,365911,,26,maze,"['Unlike', 'other', 'types', 'of', 'deer,', 'both', 'male', 'and', 'female', 'reindeer', 'have', 'antlers,', 'but,', 'like', 'other', 'deer,', 'they', 'live', 'in', 'herds.']",
1059,test,,,,,,,0.0-4.0-1.11,, ,11326,"<img  style=""width: 800px;"" src=assets/images/12.jpeg> <br><br><p>Press spacebar to continue.</p>",,377238,,27,html-keyboard-response,,
1059,test,"[1, 1, 1, 1, 1, 1, 1, 1, 1, 1, 1, 1, 1, 1, 1, 1, 1, 1]","[777, 1126, 683, 687, 829, 764, 850, 755, 1208, 854, 1341, 906, 1434, 1061, 1113, 1093, 666, 838]","['x-x-x', 'jeopardize', 'knew', 'voiced', 'send', 'summed', 'agent,', 'sideline', 'tinge', 'cowboys', 'son', 'soul', 'anime', 'dared', 'bad', 'boyfriend', 'page', 'trouble.']",,,,0.0-4.0-0.12,"[1, 1, 0, 0, 0, 0, 0, 1, 0, 0, 1, 0, 1, 1, 1, 0, 1, 0]",,"[777, 1126, 683, 687, 829, 764, 850, 755, 1208, 854, 1341, 906, 1434, 1061, 1113, 1093, 666, 838]",,,394233,,28,maze,"['During', 'migrations', 'from', 'warmer', 'to', 'cooler', 'areas,', 'reindeer', 'herds', 'combine', 'to', 'form', 'giant', 'herds', 'of', 'thousands', 'of', 'animals.']",
1059,test,,,,,,,0.0-4.0-1.12,, ,3242,"<img  style=""width: 800px;"" src=assets/images/13.jpeg> <br><br><p>Press spacebar to continue.</p>",,397477,,29,html-keyboard-response,,
1059,test,"[1, 1, 1, 1, 1, 1, 1, 1, 1, 1, 1, 1, 1, 1, 0, 1, 1, 1]","[946, 871, 1388, 666, 1686, 890, 874, 677, 575, 1987, 930, 713, 942, 1749, 2000, 814, 839, 1190]","['x-x-x', 'nice', 'proclamation', 'worry', 'arrested', 'sorry', 'luck', 'call', 'card', 'knows', 'gift', 'hear', 'join', 'lets', 'idiom', 'plan', 'yes', 'pays.']",,,,0.0-4.0-0.13,"[0, 1, 0, 1, 0, 1, 1, 1, 0, 1, 0, 0, 0, 0, 0, 0, 0, 1]",,"[946, 871, 1388, 666, 1686, 890, 874, 677, 575, 1987, 930, 713, 942, 1749, 734, 814, 839, 1190]",,,417222,,30,maze,"['Reindeer', 'were', 'domesticated', 'three', 'thousand', 'years', 'ago', 'and', 'have', 'since', 'been', 'used', 'to', 'pull', 'sleds', 'and', 'for', 'milk.']",
1059,test,,,,,,,0.0-4.0-1.13,, ,7204,"<img  style=""width: 800px;"" src=assets/images/14.jpeg> <br><br><p>Press spacebar to continue.</p>",,424427,,31,html-keyboard-response,,
1059,test,"[1, 1, 1, 1, 1, 1, 1, 1, 1, 1]","[949, 708, 895, 616, 680, 825, 938, 628, 1221, 1045]","['x-x-x', 'luck', 'ago', 'wait', 'sank', 'dollars', 'jobs', 'sick', 'gift', 'frustrations.']",,,,0.0-4.0-0.14,"[0, 1, 1, 0, 1, 0, 0, 0, 1, 0]",,"[949, 708, 895, 616, 680, 825, 938, 628, 1221, 1045]",,,432939,,32,maze,"['They', 'are', 'the', 'only', 'deer', 'species', 'that', 'has', 'been', 'domesticated.']",
1059,test,,,,,,,0.0-4.0-1.14,, ,6274,"<img  style=""width: 800px;"" src=assets/images/15.jpeg> <br><br><p>Press spacebar to continue.</p>",,439215,,33,html-keyboard-response,,
1059,test,,,,,,,0.0-5.0,,"{'age': '10', 'other': 'I really liked the pictures.', 'errors': ""I didn't find any problems."", 'length': 'It was fun.', 'understand': 'Yes, they were clear.'}",137110,,,576337,,34,survey-text,,
1059,test,,,,,,,0.0-6.0,,0,16399,<h2>Many thanks for participating!</h2><p>We are trying to see whether this way of reading sentences word by word <br> can be used to measure the language processing in younger people.</p><p>The text was adapted from Wikipedia articles and the images were from Wikipedia and Wikimedia Commons.</p><h1>Press continue to finish. </h1>,,592737,,35,html-button-response,,
